acc_x,v_x,pwm
0.0,0.0,0.75
0.0,0.0,0.75
0.0,0.0,0.75
0.0,0.0,0.75
0.0,0.0,0.75
-4.880093456449686e-06,-2.440046671381424e-07,0.75
3.942513558286009e-06,-4.687900201361117e-08,0.75
-1.4284387361840345e-06,-1.183009388228129e-07,0.75
6.903521352796815e-06,2.2687511602725863e-07,0.75
-4.574042577587534e-06,-1.8270019941368787e-09,0.75
-4.1371782799615175e-07,-2.2512894659598714e-08,0.75
9.805096626281738,0.49025481939315796,0.75
10.808056831359863,1.0306576490402222,0.75
8.460946083068848,1.4537049531936646,0.75
5.553152561187744,1.7313625812530518,0.75
4.069979190826416,1.9348615407943726,0.75
3.7703871726989746,2.1233808994293213,0.75
2.7389144897460938,2.260326623916626,0.75
2.428879737854004,2.381770610809326,0.75
1.7547321319580078,2.4695072174072266,0.75
4.191842079162598,2.6790993213653564,0.75
5.045661926269531,2.931382417678833,0.75
5.200042724609375,3.1913845539093018,0.75
5.375614166259766,3.46016526222229,0.75
5.485224723815918,3.734426498413086,0.75
5.681085586547852,4.0184807777404785,0.75
5.96949577331543,4.31695556640625,0.75
6.043024063110352,4.619106769561768,0.75
1.9691753387451172,4.717565536499023,0.75
2.7695369720458984,4.856042385101318,0.75
3.4805679321289062,5.030070781707764,0.75
3.808116912841797,5.2204766273498535,0.75
3.9335155487060547,5.417152404785156,0.75
3.8932037353515625,5.611812591552734,0.75
4.764137268066406,5.850019454956055,0.75
4.820775985717773,6.091058254241943,0.75
5.064487457275391,6.344282627105713,0.75
4.304924011230469,6.559528827667236,0.75
4.145441055297852,6.766800880432129,0.37802577018737793
3.638467788696289,6.948724269866943,-0.22311130166053772
2.34710693359375,7.066079616546631,0.75
0.6666088104248047,7.099410057067871,0.75
0.47219276428222656,7.123019695281982,0.75
0.8887100219726562,7.167455196380615,0.75
1.8543148040771484,7.260170936584473,-0.30000001192092896
1.9434261322021484,7.35734224319458,-0.30000001192092896
0.4407215118408203,7.379378318786621,0.1797299087047577
-0.41434288024902344,7.35866117477417,0.75
-0.3987598419189453,7.338723182678223,0.75
-0.058193206787109375,7.335813522338867,0.75
0.9345054626464844,7.382538795471191,-0.20746004581451416
1.2197399139404297,7.443525791168213,-0.30000001192092896
0.016117095947265625,7.444331645965576,0.18248440325260162
-0.7168960571289062,7.408486843109131,0.75
-0.6490230560302734,7.376035690307617,0.75
-0.2153301239013672,7.365269184112549,0.75
0.81756591796875,7.406147480010986,0.021665487438440323
1.3794517517089844,7.4751200675964355,-0.30000001192092896
0.3060150146484375,7.490420818328857,-0.2685232162475586
-1.1595630645751953,7.432442665100098,0.75
-1.4127826690673828,7.3618035316467285,0.75
-1.0892677307128906,7.307340145111084,0.75
-0.2508735656738281,7.294796466827393,0.75
0.7854175567626953,7.334067344665527,0.2929893732070923
1.4390850067138672,7.406021595001221,-0.30000001192092896
0.4075813293457031,7.426400661468506,0.08351323008537292
-0.62286376953125,7.395257472991943,0.75
-1.0020256042480469,7.345156192779541,0.75
-1.2855339050292969,7.280879497528076,0.75
-0.9578609466552734,7.2329864501953125,0.75
0.026388168334960938,7.2343058586120605,0.75
1.067495346069336,7.287680625915527,0.3759004473686218
1.6571903228759766,7.370540142059326,-0.30000001192092896
0.6859970092773438,7.404839992523193,0.017979519441723824
-0.4422760009765625,7.382726192474365,0.75
-0.9255218505859375,7.336450099945068,0.75
-0.8067131042480469,7.296114444732666,0.75
0.008525848388671875,7.2965407371521,0.75
1.0424232482910156,7.34866189956665,0.06387084722518921
1.63848876953125,7.430586338043213,-0.30000001192092896
0.46034812927246094,7.453603744506836,-0.08867334574460983
-0.7805633544921875,7.414575576782227,0.75
-1.1591911315917969,7.356616020202637,0.75
-1.0036659240722656,7.306432723999023,0.75
-0.1944446563720703,7.29671049118042,0.75
0.87677001953125,7.340548992156982,0.24657534062862396
1.4914608001708984,7.415122032165527,-0.30000001192092896
0.3821754455566406,7.434230804443359,0.0813947543501854
-0.6657695770263672,7.400942325592041,0.75
-0.9097099304199219,7.355456829071045,0.75
-0.6413173675537109,7.323390960693359,0.75
0.26106834411621094,7.33644437789917,0.7000318765640259
1.1986351013183594,7.396376132965088,-0.30000001192092896
1.2172603607177734,7.457239151000977,-0.30000001192092896
-0.14372825622558594,7.450052738189697,0.3725849390029907
-0.71533203125,7.414286136627197,0.75
-0.5277919769287109,7.387896537780762,0.75
0.18480300903320312,7.397136688232422,0.4263082444667816
0.95611572265625,7.444942474365234,-0.30000001192092896
0.32469749450683594,7.461177349090576,-0.017818104475736618
-1.1086177825927734,7.4057464599609375,0.75
-1.4038467407226562,7.335554122924805,0.75
-1.0465145111083984,7.283228397369385,0.75
-0.23326873779296875,7.271564960479736,0.75
0.8416843414306641,7.3136491775512695,0.40577957034111023
1.4792346954345703,7.387610912322998,-0.30000001192092896
0.6349563598632812,7.419358730316162,-0.014599539339542389
-0.50811767578125,7.3939528465271,0.75
-0.9848499298095703,7.344710350036621,0.75
-0.9013652801513672,7.299642086029053,0.75
-0.10472297668457031,7.294405937194824,0.75
0.9404563903808594,7.341428756713867,0.19376032054424286
1.5526962280273438,7.419063568115234,-0.30000001192092896
0.4193687438964844,7.440032005310059,0.033778153359889984
-0.6790828704833984,7.406077861785889,0.75
-1.0378170013427734,7.35418701171875,0.75
-0.854644775390625,7.311454772949219,0.75
0.001201629638671875,7.311514854431152,0.75
1.0425186157226562,7.363640785217285,-0.0028055838774889708
1.6192340850830078,7.4446024894714355,-0.30000001192092896
0.4582405090332031,7.467514514923096,-0.14565002918243408
-0.8585166931152344,7.424588680267334,0.75
-1.2108325958251953,7.364047050476074,0.75
-1.0172271728515625,7.313185691833496,0.75
-0.20128250122070312,7.303121566772461,0.75
0.8607673645019531,7.346159934997559,0.2243180125951767
1.4925289154052734,7.420786380767822,-0.30000001192092896
0.37911415100097656,7.439742088317871,0.062494177371263504
-0.678558349609375,7.405814170837402,0.75
-0.9663200378417969,7.3574981689453125,0.75
-0.73455810546875,7.320770263671875,0.75
0.1559734344482422,7.328568935394287,0.75
1.1737442016601562,7.387256145477295,-0.22447361052036285
1.3557815551757812,7.455045223236084,-0.30000001192092896
0.10538101196289062,7.4603142738342285,0.14768551290035248
-0.5659770965576172,7.432015419006348,0.75
-0.6972408294677734,7.397153377532959,0.75
-0.326080322265625,7.380849361419678,0.75
0.6444931030273438,7.413074016571045,0.014638139866292477
1.3189697265625,7.47902250289917,-0.30000001192092896
0.2663993835449219,7.492342472076416,-0.14378340542316437
-0.9867191314697266,7.44300651550293,0.75
-1.3057899475097656,7.377717018127441,0.75
-1.0891342163085938,7.323260307312012,0.75
-0.25661468505859375,7.310429573059082,0.75
0.8166122436523438,7.351260185241699,0.22466681897640228
1.4566898345947266,7.4240946769714355,-0.30000001192092896
0.35709381103515625,7.441949367523193,0.06491649895906448
-0.6928825378417969,7.4073052406311035,0.75
-0.971527099609375,7.358728885650635,0.75
-0.7333564758300781,7.322061061859131,0.75
0.16348838806152344,7.330235481262207,0.75
1.1794185638427734,7.389206409454346,-0.23887057602405548
1.3512229919433594,7.456767559051514,-0.30000001192092896
0.09336471557617188,7.461435794830322,0.15045414865016937
-0.5630588531494141,7.433282852172852,0.75
-0.6905460357666016,7.3987555503845215,0.75
-0.3134441375732422,7.383083343505859,0.75
0.6585788726806641,7.416012287139893,-0.011226149275898933
1.3027763366699219,7.481151103973389,-0.30000001192092896
0.24362564086914062,7.493332386016846,-0.13263992965221405
-0.9659957885742188,7.445032596588135,0.75
-1.2936115264892578,7.380352020263672,0.75
-1.0859394073486328,7.32605504989624,0.75
-0.2544212341308594,7.313333988189697,0.75
0.8186721801757812,7.354267597198486,0.20659776031970978
1.4574623107910156,7.427140712738037,-0.30000001192092896
0.35790443420410156,7.445035934448242,0.047387655824422836
-0.70831298828125,7.40962028503418,0.75
-1.0231304168701172,7.358463764190674,0.75
-0.8148384094238281,7.317721843719482,0.75
0.06272315979003906,7.320858001708984,0.75
1.0943222045898438,7.375574111938477,-0.1038469597697258
1.4336204528808594,7.4472551345825195,-0.30000001192092896
0.2390003204345703,7.459205150604248,0.05799393728375435
-0.6238651275634766,7.428011894226074,0.75
-0.9433078765869141,7.3808465003967285,0.75
-0.7311344146728516,7.344289779663086,0.75
0.15349388122558594,7.351964473724365,0.699828028678894
1.1065292358398438,7.407290935516357,-0.2856081426143646
1.1475372314453125,7.464667797088623,-0.30000001192092896
-0.1793193817138672,7.45570182800293,0.37625399231910706
-0.7325553894042969,7.419074058532715,0.75
-0.5483055114746094,7.391658782958984,0.75
0.17450332641601562,7.400383949279785,0.42091625928878784
0.9392547607421875,7.4473466873168945,-0.30000001192092896
0.30231475830078125,7.462462425231934,-0.007236971985548735
-0.7099056243896484,7.426967144012451,0.75
-1.1333656311035156,7.370298862457275,0.75
-1.0089874267578125,7.319849491119385,0.75
-0.1935100555419922,7.310173988342285,0.75
0.8692836761474609,7.353638172149658,0.17430052161216736
1.496877670288086,7.4284820556640625,-0.30000001192092896
0.3828239440917969,7.447623252868652,0.016450632363557816
-0.7231998443603516,7.411463260650635,0.75
-1.1068153381347656,7.3561224937438965,0.75
-0.9501361846923828,7.308615684509277,0.75
-0.11111259460449219,7.303060054779053,0.75
0.944061279296875,7.3502631187438965,0.14158931374549866
1.5536212921142578,7.427944183349609,-0.30000001192092896
0.41922569274902344,7.4489054679870605,-0.015418639406561852
-0.7324504852294922,7.412282943725586,0.75
-1.1463451385498047,7.354965686798096,0.75
-1.0154151916503906,7.304194927215576,0.75
-0.19956588745117188,7.294216632843018,0.75
0.8644390106201172,7.337438583374023,0.2684997022151947
1.4934635162353516,7.412111759185791,-0.30000001192092896
0.4057502746582031,7.432399272918701,0.08387384563684464
-0.6427669525146484,7.400260925292969,0.75
-0.8911514282226562,7.355703353881836,0.75
-0.6282901763916016,7.324288845062256,0.75
0.28778076171875,7.338677883148193,0.676883339881897
1.19140625,7.398248195648193,-0.2956845462322235
1.1400413513183594,7.455250263214111,-0.30000001192092896
-0.2322673797607422,7.443636894226074,0.48155319690704346
-0.7685279846191406,7.405210494995117,0.75
-0.5732154846191406,7.37654972076416,0.75
0.1531219482421875,7.3842058181762695,0.525039553642273
0.9525108337402344,7.431831359863281,-0.30000001192092896
1.1342048645019531,7.488541603088379,-0.30000001192092896
0.6614017486572266,7.52161169052124,-0.30000001192092896
-0.8006572723388672,7.481578826904297,0.681411862373352
-1.1824512481689453,7.42245626449585,0.75
-0.8842086791992188,7.378245830535889,0.75
-0.09143829345703125,7.373673915863037,0.75
0.9538364410400391,7.421365737915039,-0.25572818517684937
1.1853408813476562,7.480632781982422,-0.30000001192092896
-0.025634765625,7.479351043701172,0.1345820128917694
-0.6436920166015625,7.447166442871094,0.75
-0.7854080200195312,7.407896041870117,0.75
-0.4237079620361328,7.3867106437683105,0.75
0.5403900146484375,7.413730144500732,0.08379620313644409
1.239175796508789,7.475688934326172,-0.30000001192092896
0.21457672119140625,7.486417770385742,-0.07557439059019089
-1.2780570983886719,7.422514915466309,0.75
-1.5258979797363281,7.346220016479492,0.75
-1.1369895935058594,7.289370536804199,0.75
-0.2970314025878906,7.274518966674805,0.75
0.7833576202392578,7.313686847686768,0.45276904106140137
1.4416790008544922,7.385770797729492,-0.30000001192092896
0.7088851928710938,7.421215057373047,-0.0743655413389206
-0.4750537872314453,7.397462368011475,0.75
-0.949249267578125,7.349999904632568,0.75
-0.8546161651611328,7.307269096374512,0.75
-0.07193565368652344,7.3036723136901855,0.75
0.9703826904296875,7.35219144821167,0.11386602371931076
1.5750980377197266,7.430946350097656,-0.30000001192092896
0.4316902160644531,7.452530860900879,-0.04297572001814842
-0.7518386840820312,7.414938926696777,0.75
-1.154022216796875,7.357237815856934,0.75
-1.013631820678711,7.306556224822998,0.75
-0.198974609375,7.296607494354248,0.75
0.8654880523681641,7.339881896972656,0.2544744610786438
1.4936542510986328,7.414564609527588,-0.30000001192092896
0.38840293884277344,7.433984756469727,0.08768104761838913
-0.6572818756103516,7.401120662689209,0.75
-0.8918952941894531,7.356525897979736,0.75
-0.6203651428222656,7.325507640838623,0.75
0.3023338317871094,7.3406243324279785,0.6558359265327454
1.176910400390625,7.39946985244751,-0.2921074330806732
1.0120773315429688,7.450073719024658,-0.30000001192092896
-0.30976295471191406,7.4345855712890625,0.5899664759635925
-0.8368110656738281,7.392745018005371,0.75
-0.6148624420166016,7.362001895904541,0.75
0.11384963989257812,7.36769437789917,0.641507625579834
0.76995849609375,7.406192302703857,-0.09618932753801346
1.055459976196289,7.458965301513672,-0.30000001192092896
-0.1967144012451172,7.449129581451416,0.43400946259498596
-0.9301567077636719,7.402621746063232,0.75
-1.0016345977783203,7.352540016174316,0.75
0.04549980163574219,7.3548150062561035,0.7131043672561646
1.0930728912353516,7.409468650817871,-0.30000001192092896
1.2978076934814453,7.474359035491943,-0.30000001192092896
0.040645599365234375,7.476391315460205,0.08021362870931625
-1.0134029388427734,7.425721168518066,0.75
-0.9444236755371094,7.378499984741211,0.75
-0.6686210632324219,7.34506893157959,0.75
0.30915260314941406,7.3605265617370605,0.445193350315094
0.9797096252441406,7.409512042999268,-0.30000001192092896
-0.14829635620117188,7.402097225189209,0.20742462575435638
-0.6223773956298828,7.370978355407715,0.75
-0.41141510009765625,7.350407600402832,0.75
-0.09141921997070312,7.345836639404297,0.6577230095863342
0.1367950439453125,7.3526763916015625,0.0036697310861200094
0.9507369995117188,7.400213241577148,-0.30000001192092896
0.07936477661132812,7.404181480407715,0.08285482227802277
-1.0323524475097656,7.352563858032227,0.75
-1.0959815979003906,7.297764778137207,0.75
-1.6736125946044922,7.214084148406982,0.75
-0.14151573181152344,7.207008361816406,0.75
1.0502147674560547,7.259519100189209,-0.20168690383434296
1.3802051544189453,7.328529357910156,-0.30000001192092896
-0.9237003326416016,7.282344341278076,0.40135905146598816
-0.9020423889160156,7.237242221832275,0.75
-0.5480194091796875,7.209841251373291,0.75
0.3128242492675781,7.22548246383667,0.19762597978115082
1.0506343841552734,7.278014183044434,-0.30000001192092896
0.08234024047851562,7.282131195068359,-0.30000001192092896
-0.4402351379394531,7.260119438171387,-0.20654048025608063
-0.8110237121582031,7.219568252563477,0.6183010935783386
-1.386709213256836,7.150232791900635,0.75
-1.0152339935302734,7.099471092224121,0.75
-1.6207122802734375,7.018435478210449,0.75
0.16823768615722656,7.0268473625183105,-0.053717680275440216
1.0836315155029297,7.081028938293457,-0.30000001192092896
0.24267196655273438,7.093162536621094,-0.11732075363397598
-2.4407291412353516,6.971126079559326,0.75
-1.8549919128417969,6.878376483917236,0.75
-1.2523365020751953,6.815759658813477,0.75
-0.20662307739257812,6.805428504943848,0.75
0.5105018615722656,6.830953598022461,0.2924209237098694
-0.5122280120849609,6.805342197418213,-0.30000001192092896
-0.46146392822265625,6.78226900100708,0.2106734663248062
-0.49080848693847656,6.757728576660156,0.75
-0.7625865936279297,6.71959924697876,0.75
-2.0702266693115234,6.616087913513184,0.75
-0.13507843017578125,6.6093339920043945,0.0049382965080440044
1.3753986358642578,6.678103923797607,-0.30000001192092896
0.10083198547363281,6.683145523071289,-0.20685172080993652
-0.9852504730224609,6.633882999420166,0.75
-3.3100223541259766,6.468381881713867,0.75
-1.9408798217773438,6.371337890625,0.75
-0.5593490600585938,6.34337043762207,0.75
0.7031726837158203,6.378529071807861,0.19375039637088776
0.9282398223876953,6.424941062927246,-0.30000001192092896
-2.0606040954589844,6.321910858154297,0.3607122302055359
-1.7267704010009766,6.235572338104248,0.75
-0.4197216033935547,6.21458625793457,0.75
-0.10169029235839844,6.20950174331665,0.5270746350288391
-1.7417144775390625,6.122416019439697,-0.09049488604068756
-0.6190586090087891,6.091463088989258,-0.19517166912555695
-0.4338550567626953,6.069770336151123,0.6697139143943787
-1.184549331665039,6.010542869567871,0.75
-0.8538246154785156,5.967851638793945,0.75
-2.7178096771240234,5.831961154937744,0.75
-0.5932426452636719,5.8022990226745605,0.0665094405412674
0.8074569702148438,5.842671871185303,-0.30000001192092896
0.2875041961669922,5.857047080993652,-0.18484418094158173
-3.4997177124023438,5.682061195373535,0.75
-2.3243331909179688,5.565844535827637,0.75
-1.290731430053711,5.501307964324951,0.75
-0.25397300720214844,5.488609313964844,0.75
0.15959739685058594,5.496589183807373,0.377856582403183
-2.019977569580078,5.395590305328369,-0.2535851001739502
-1.0288524627685547,5.344147682189941,0.15391871333122253
-0.3100395202636719,5.328645706176758,0.75
-0.7997989654541016,5.288655757904053,0.75
-0.3541851043701172,5.270946502685547,0.75
-2.5899124145507812,5.141450881958008,0.3489767909049988
-0.6770420074462891,5.107598781585693,-0.30000001192092896
-0.16109466552734375,5.099544048309326,-0.13176076114177704
-0.6149196624755859,5.068798065185547,0.75
-3.9832592010498047,4.869635105133057,0.75
-2.2738075256347656,4.755944728851318,0.75
-0.7095432281494141,4.720467567443848,0.75
0.4280662536621094,4.741870880126953,0.15213923156261444
0.4155731201171875,4.7626495361328125,-0.30000001192092896
-3.2329940795898438,4.60099983215332,0.3309919238090515
-2.0885276794433594,4.496573448181152,0.75
-0.3977203369140625,4.476687431335449,0.75
-0.29519081115722656,4.461927890777588,0.49287524819374084
0.35910606384277344,4.479883193969727,-0.30000001192092896
-3.1580257415771484,4.321981906890869,0.1435740888118744
-3.754549026489258,4.134254455566406,0.75
-0.5342769622802734,4.107540607452393,0.75
-0.06517410278320312,4.104281902313232,0.75
-3.2851076126098633,3.9400265216827393,0.75
-1.6686487197875977,3.8565940856933594,0.433197021484375
0.08029937744140625,3.8606090545654297,-0.30000001192092896
0.2555656433105469,3.873387336730957,-0.16529682278633118
-0.8590936660766602,3.830432653427124,0.75
-4.265379905700684,3.61716365814209,0.75
-2.3376083374023438,3.5002832412719727,0.75
-0.21038532257080078,3.4897639751434326,0.75
-0.0244140625,3.4885432720184326,0.2777499556541443
0.4542112350463867,3.511253833770752,-0.30000001192092896
-3.5118770599365234,3.335659980773926,0.34890037775039673
-2.246103286743164,3.2233548164367676,0.75
-0.8403587341308594,3.1813368797302246,0.75
-0.019278526306152344,3.180372953414917,0.3734089732170105
-3.480958938598633,3.0063250064849854,-0.06934163719415665
-1.7940044403076172,2.9166247844696045,0.02311599627137184
-0.8338022232055664,2.874934673309326,0.75
-0.5980587005615234,2.84503173828125,0.75
-0.9971284866333008,2.795175313949585,0.75
-4.089493751525879,2.590700626373291,0.75
-1.7239093780517578,2.504505157470703,0.2020169347524643
0.35552978515625,2.5222816467285156,-0.30000001192092896
-0.3371238708496094,2.505425453186035,-0.01930060051381588
-4.317636489868164,2.289543628692627,0.75
-2.3670291900634766,2.171192169189453,0.75
-0.5194377899169922,2.1452202796936035,0.75
-0.6083393096923828,2.1148033142089844,0.75
-0.10065078735351562,2.1097707748413086,0.2602995038032532
-3.6887431144714355,1.9253336191177368,-0.26504865288734436
-1.9321918487548828,1.8287240266799927,0.237807035446167
-0.7533621788024902,1.7910559177398682,0.75
-0.2895522117614746,1.7765783071517944,0.75
-0.6349349021911621,1.7448315620422363,0.75
-4.032678604125977,1.5431976318359375,0.02031601220369339
-2.5807857513427734,1.4141583442687988,-0.30000001192092896
-0.32798290252685547,1.397759199142456,-0.30000001192092896
-0.6987547874450684,1.3628214597702026,0.75
-0.5973505973815918,1.332953929901123,0.75
-4.224436283111572,1.1217321157455444,0.75
-2.084789276123047,1.017492651939392,0.75
-0.576862096786499,0.9886495471000671,0.3385748267173767
-0.012978315353393555,0.9880006313323975,-0.30000001192092896
-0.5748128890991211,0.9592599868774414,0.05298753082752228
-0.37357330322265625,0.9405813217163086,0.75
-4.042317867279053,0.738465428352356,0.75
-0.9153568744659424,0.6926975846290588,0.75
-0.08103370666503906,0.6886458992958069,0.75
0.023589134216308594,0.6898253560066223,-0.20307032763957977
-0.4438900947570801,0.6676308512687683,-0.30000001192092896
-4.0152435302734375,0.46686866879463196,0.4348847270011902
-0.02297520637512207,0.46571990847587585,0.75
0.9013146162033081,0.5107856392860413,0.75
-0.3058469295501709,0.4954932928085327,0.3395129144191742
-0.15377461910247803,0.4878045618534088,-0.30000001192092896
-0.41373372077941895,0.46711787581443787,0.06298745423555374
-3.1539340019226074,0.309421181678772,0.75
0.3876650333404541,0.3288044333457947,0.75
0.7346218824386597,0.36553552746772766,0.75
-0.26369452476501465,0.35235080122947693,0.75
-0.027669072151184082,0.3509673476219177,-0.24724364280700684
-2.69242525100708,0.21634608507156372,-0.30000001192092896
0.7031458616256714,0.2515033781528473,0.17137879133224487
0.297619104385376,0.2663843333721161,0.75
0.07920801639556885,0.27034473419189453,0.75
-0.35524845123291016,0.252582311630249,0.75
-2.916926383972168,0.10673598945140839,0.0066612036898732185
0.622146725654602,0.1378433257341385,-0.30000001192092896
0.7854056358337402,0.1771136075258255,-0.2516108751296997
-0.2446189522743225,0.16488265991210938,0.75
-0.043108463287353516,0.1627272367477417,0.75
-0.3007325530052185,0.14769060909748077,0.75
0.10085910558700562,0.15273356437683105,0.75
-0.20110011100769043,0.14267855882644653,0.24460560083389282
0.15008240938186646,0.15018267929553986,-0.30000001192092896
-1.7135069370269775,0.06450733542442322,-0.30000001192092896
0.5917415022850037,0.0940944105386734,-0.30000001192092896
0.09904667735099792,0.0990467444062233,-0.30000001192092896
0.10618820786476135,0.10435615479946136,0.6494588851928711
-0.28031453490257263,0.09034042805433273,0.75
0.09316608309745789,0.09499873220920563,0.75
-1.6453404426574707,0.012731710448861122,0.75
0.6132871508598328,0.04339606687426567,-0.09084361791610718
0.1122034341096878,0.04900623857975006,-0.30000001192092896
0.1357552409172058,0.05579400062561035,-0.031027546152472496
-0.2425815910100937,0.04366492107510567,0.75
0.12421883642673492,0.04987586289644241,0.75
-0.1981758326292038,0.039967071264982224,0.75
0.15082232654094696,0.04750818759202957,0.75
-0.18231213092803955,0.038392581045627594,0.029930049553513527
-0.6626462936401367,0.0052602654322981834,-0.30000001192092896
0.13633573055267334,0.012077052146196365,-0.1815938651561737
0.31703048944473267,0.02792857587337494,0.75
-0.18851131200790405,0.018503010272979736,0.75
0.1318114995956421,0.02509358525276184,0.75
-0.19104504585266113,0.01554133277386427,0.75
-0.44508689641952515,-0.006713011767715216,0.09670843929052353
0.05308198928833008,-0.004058912396430969,-0.30000001192092896
0.27876052260398865,0.009879114106297493,-0.12296812981367111
-0.17875665426254272,0.0009412811486981809,0.75
0.14097031950950623,0.007989796809852123,0.75
-0.18857547640800476,-0.0014389775460585952,0.75
-0.799480140209198,-0.04141298681497574,0.75
0.17221689224243164,-0.032802142202854156,0.10783915221691132
0.35660696029663086,-0.014971794560551643,-0.30000001192092896
-0.18814168870449066,-0.024378878995776176,-0.10634993761777878
0.12056466192007065,-0.018350645899772644,0.75
-3.6863980293273926,-0.20267054438591003,0.75
-0.07244765758514404,-0.20629292726516724,0.75
0.18840551376342773,-0.19687265157699585,0.75
0.09963840246200562,-0.19189073145389557,0.1304701715707779
-0.4034850001335144,-0.2120649814605713,-0.30000001192092896
-3.6309313774108887,-0.3936115503311157,0.16088001430034637
-2.692817449569702,-0.5282524228096008,0.75
-0.3226637840270996,-0.5443856120109558,0.75
-0.3220045566558838,-0.56048583984375,0.75
-0.2215874195098877,-0.5715652108192444,-0.06729725748300552
-3.8865602016448975,-0.7658932209014893,-0.30000001192092896
-4.463565349578857,-0.9890714883804321,0.38697969913482666
-1.4048957824707031,-1.0593162775039673,0.75
-0.21742820739746094,-1.0701876878738403,0.7081310749053955
-0.671684741973877,-1.1037719249725342,0.2983873188495636
-4.349408149719238,-1.321242332458496,-0.17663617432117462
-5.312185287475586,-1.5868515968322754,0.75
-1.745290756225586,-1.6741161346435547,0.75
-0.6010270118713379,-1.7041674852371216,0.75
-0.5658292770385742,-1.7324589490890503,0.37474238872528076
-4.359626770019531,-1.9504402875900269,0.042247261852025986
-6.135380268096924,-2.257209300994873,0.5433883666992188
-2.572479248046875,-2.385833263397217,0.75
-0.7182645797729492,-2.4217464923858643,0.5392012000083923
-0.9557676315307617,-2.4695348739624023,0.270854651927948
-4.490880966186523,-2.6940789222717285,0.27647534012794495
-5.974869728088379,-2.9928224086761475,0.75
-2.906465530395508,-3.138145685195923,0.5747002959251404
-1.2324810028076172,-3.1997697353363037,0.15287643671035767
-4.776949882507324,-3.43861722946167,0.14907246828079224
-5.308990478515625,-3.704066753387451,0.75
-2.331271171569824,-3.8206303119659424,0.75
-0.9871053695678711,-3.869985580444336,0.6980428695678711
-1.373600959777832,-3.9386656284332275,-0.30000001192092896
-4.24105167388916,-4.1507182121276855,-0.04213191941380501
-5.007152557373047,-4.401075839996338,0.75
-2.0081424713134766,-4.501482963562012,0.75
-0.6883335113525391,-4.535899639129639,0.75
-0.9585189819335938,-4.583825588226318,0.44124966859817505
-2.3476123809814453,-4.701206207275391,0.75
-5.1567840576171875,-4.95904541015625,0.75
-5.760202407836914,-5.247055530548096,0.7290173172950745
-3.8645267486572266,-5.440281867980957,-0.30000001192092896
-5.634288787841797,-5.721996307373047,-0.30000001192092896
-3.6419105529785156,-5.904091835021973,0.6361275315284729
-1.5731525421142578,-5.9827494621276855,0.5750004649162292
-0.7378196716308594,-6.0196404457092285,0.75
-1.2975311279296875,-6.084517002105713,-0.0258171409368515
-3.5030269622802734,-6.259668350219727,-0.11534928530454636
-3.2637691497802734,-6.42285680770874,0.7335988879203796
-0.9627056121826172,-6.470992088317871,0.75
-0.3337574005126953,-6.487679958343506,0.75
-2.1680259704589844,-6.596081256866455,0.75
-3.7006092071533203,-6.781111717224121,0.6057332158088684
-3.4233760833740234,-6.952280521392822,-0.30000001192092896
-2.334766387939453,-7.069018840789795,-0.30000001192092896
-0.22430419921875,-7.080234050750732,0.08507707715034485
0.15221595764160156,-7.072623252868652,0.5223954319953918
0.5670356750488281,-7.044271469116211,0.75
0.2373981475830078,-7.0324015617370605,0.75
-0.8395671844482422,-7.074379920959473,0.505305290222168
-1.019287109375,-7.125344276428223,-0.30000001192092896
-0.5872440338134766,-7.1547064781188965,-0.26744958758354187
0.6751537322998047,-7.120948791503906,0.75
1.0259151458740234,-7.069653034210205,0.75
0.7948684692382812,-7.029909610748291,0.75
0.024156570434570312,-7.0287017822265625,0.75
-0.9206008911132812,-7.074731826782227,0.0007717343978583813
-1.5595340728759766,-7.152708530426025,-0.30000001192092896
-0.3953742980957031,-7.1724772453308105,-0.14407561719417572
0.7913112640380859,-7.132911682128906,0.75
1.199045181274414,-7.0729594230651855,0.75
0.9397125244140625,-7.025973796844482,0.75
0.2319812774658203,-7.014374732971191,0.75
-0.8750152587890625,-7.0581254959106445,0.2378825843334198
-1.3925361633300781,-7.127752304077148,-0.30000001192092896
-0.41174888610839844,-7.148339748382568,0.07614941149950027
0.6833267211914062,-7.114173412322998,0.75
0.8443355560302734,-7.071956634521484,0.75
0.6910800933837891,-7.037402629852295,0.75
-0.27258872985839844,-7.051032066345215,0.7342896461486816
-1.1264896392822266,-7.107356548309326,-0.30000001192092896
-1.3271045684814453,-7.173711776733398,-0.30000001192092896
0.03390312194824219,-7.172016620635986,0.20100939273834229
0.5218315124511719,-7.145925045013428,0.75
0.6301975250244141,-7.114415168762207,0.75
0.068359375,-7.110997200012207,0.6506900191307068
-0.6806468963623047,-7.145029544830322,-0.1839941442012787
-0.7973194122314453,-7.1848955154418945,-0.30000001192092896
0.4718303680419922,-7.161303997039795,0.5880221724510193
0.8949184417724609,-7.116558074951172,0.75
0.7479763031005859,-7.079159259796143,0.75
-0.07451057434082031,-7.082884788513184,0.7002164721488953
-0.9091949462890625,-7.128344535827637,-0.26194554567337036
-1.8579673767089844,-7.221242904663086,-0.30000001192092896
-0.4627037048339844,-7.244378089904785,0.6865522861480713
0.5275440216064453,-7.218000888824463,0.75
0.45685768127441406,-7.195158004760742,0.75
-0.22754669189453125,-7.206535339355469,0.5825674533843994
-1.5736961364746094,-7.285220146179199,-0.06458775699138641
-1.2469959259033203,-7.347569942474365,-0.30000001192092896
0.21262168884277344,-7.336938858032227,0.5349507331848145
0.9968662261962891,-7.287095546722412,0.75
0.6514358520507812,-7.254523754119873,0.75
-0.2723407745361328,-7.26814079284668,0.75
-1.2708473205566406,-7.331683158874512,0.115135557949543
-1.9319629669189453,-7.428281307220459,-0.30000001192092896
-1.6815185546875,-7.512357234954834,-0.30000001192092896
-0.2904033660888672,-7.526877403259277,-0.30000001192092896
0.7498455047607422,-7.48938512802124,0.7016301155090332
1.7579078674316406,-7.401489734649658,0.75
1.9591522216796875,-7.303532123565674,0.75
1.5354633331298828,-7.22675895690918,0.75
0.4880046844482422,-7.202358722686768,0.75
-0.617828369140625,-7.233250141143799,0.75
-1.5746212005615234,-7.311981201171875,0.02583729662001133
-1.970672607421875,-7.410514831542969,-0.30000001192092896
-0.6559562683105469,-7.443312644958496,-0.28487274050712585
0.9549522399902344,-7.395565032958984,0.75
1.2567901611328125,-7.332725524902344,0.75
1.0243511199951172,-7.281507968902588,0.75
0.1334095001220703,-7.274837493896484,0.75
-0.8625698089599609,-7.317965984344482,0.3344632387161255
-1.5364646911621094,-7.394789218902588,-0.30000001192092896
-0.5155181884765625,-7.420565128326416,0.05274292454123497
0.5469894409179688,-7.393215656280518,0.75
0.9057807922363281,-7.347926616668701,0.75
0.7051944732666016,-7.312666893005371,0.75
-0.15593528747558594,-7.32046365737915,0.75
-1.172628402709961,-7.379095077514648,-0.20463602244853973
-1.3477802276611328,-7.446484088897705,-0.30000001192092896
-0.11667251586914062,-7.452317714691162,0.16067031025886536
0.5780124664306641,-7.423417091369629,0.75
0.6597042083740234,-7.390431880950928,0.75
0.2672004699707031,-7.377071857452393,0.75
-0.7041168212890625,-7.412277698516846,-0.005508357658982277
-1.3440895080566406,-7.479482173919678,-0.30000001192092896
-0.2828025817871094,-7.493622303009033,-0.17599467933177948
1.014852523803711,-7.442879676818848,0.75
1.3216209411621094,-7.376798629760742,0.75
1.0836410522460938,-7.3226165771484375,0.75
0.2542400360107422,-7.3099045753479,0.75
-0.8138084411621094,-7.350594997406006,0.22560061514377594
-1.4591693878173828,-7.423553466796875,-0.30000001192092896
-0.3567314147949219,-7.441390037536621,0.06681960076093674
0.6900310516357422,-7.406888484954834,0.75
0.9795856475830078,-7.357909202575684,0.75
0.7235431671142578,-7.321732044219971,0.75
-0.1689434051513672,-7.330179214477539,0.75
-1.1901283264160156,-7.38968563079834,-0.2520230710506439
-1.3577651977539062,-7.457573890686035,-0.30000001192092896
-0.08896827697753906,-7.462022304534912,0.14800840616226196
0.5707359313964844,-7.433485507965088,0.75
0.69305419921875,-7.39883279800415,0.75
0.32601356506347656,-7.382532119750977,0.75
-0.6482315063476562,-7.414943695068359,0.00047059860662557185
-1.3216304779052734,-7.481025218963623,-0.30000001192092896
-0.26810646057128906,-7.4944305419921875,-0.15522098541259766
1.0023880004882812,-7.444311141967773,0.75
1.3144874572753906,-7.378586769104004,0.75
1.0919189453125,-7.323990821838379,0.75
0.2579307556152344,-7.311094284057617,0.75
-0.8157920837402344,-7.351883888244629,0.22192120552062988
-1.4552974700927734,-7.424648761749268,-0.30000001192092896
-0.3560161590576172,-7.442449569702148,0.06281843781471252
0.6926822662353516,-7.407815456390381,0.75
0.9781551361083984,-7.358907699584961,0.75
0.7430171966552734,-7.321756839752197,0.75
-0.14792442321777344,-7.329153060913086,0.75
-1.1696243286132812,-7.38763427734375,-0.22336463630199432
-1.352548599243164,-7.455261707305908,-0.30000001192092896
-0.10495185852050781,-7.460509300231934,0.1470843404531479
0.5660629272460938,-7.432206153869629,0.75
0.6990337371826172,-7.397254467010498,0.75
0.32898902893066406,-7.380805015563965,0.75
-0.6410980224609375,-7.412859916687012,0.018545813858509064
-1.315469741821289,-7.478633403778076,-0.30000001192092896
-0.2646064758300781,-7.49186372756958,-0.13961072266101837
0.9804439544677734,-7.442841529846191,0.75
1.3021469116210938,-7.377734184265137,0.75
1.088571548461914,-7.323305606842041,0.75
0.25595664978027344,-7.310507774353027,0.75
-0.8163547515869141,-7.351325511932373,0.2242359220981598
-1.4559173583984375,-7.424121379852295,-0.30000001192092896
-0.3558158874511719,-7.4419121742248535,0.06564222276210785
0.6920814514160156,-7.407308101654053,0.75
0.9696292877197266,-7.358826637268066,0.75
0.7301998138427734,-7.322316646575928,0.75
-0.1672649383544922,-7.330679893493652,0.75
-1.1822509765625,-7.389792442321777,-0.2438967227935791
-1.3526439666748047,-7.457424640655518,-0.30000001192092896
-0.09116172790527344,-7.461982727050781,0.14937281608581543
0.5625724792480469,-7.433854103088379,0.75
0.6923961639404297,-7.399234294891357,0.75
0.31722068786621094,-7.383373260498047,0.75
-0.6532669067382812,-7.416036605834961,-0.007452085614204407
-1.3082599639892578,-7.481449604034424,-0.30000001192092896
-0.2512550354003906,-7.494012355804443,-0.14159329235553741
0.9804821014404297,-7.444988250732422,0.75
1.3031864166259766,-7.379828929901123,0.75
1.0883808135986328,-7.325409889221191,0.75
0.2559185028076172,-7.3126139640808105,0.75
-0.8171844482421875,-7.35347318649292,0.21155817806720734
-1.4567184448242188,-7.426309108734131,-0.30000001192092896
-0.35714149475097656,-7.44416618347168,0.05225326493382454
0.70404052734375,-7.408964157104492,0.75
1.008920669555664,-7.358518123626709,0.75
0.79193115234375,-7.3189215660095215,0.75
-0.09063720703125,-7.323453426361084,0.75
-1.118001937866211,-7.3793535232543945,-0.14111170172691345
-1.392812728881836,-7.448994159698486,-0.30000001192092896
-0.18538475036621094,-7.458263397216797,0.10181625187397003
0.5932140350341797,-7.428602695465088,0.75
0.8206272125244141,-7.387571334838867,0.75
0.53253173828125,-7.360944747924805,0.75
-0.39864540100097656,-7.3808770179748535,0.3668700158596039
-1.12884521484375,-7.437319278717041,-0.30000001192092896
-0.3199195861816406,-7.453315258026123,0.03043835610151291
0.6988811492919922,-7.418371200561523,0.75
1.0556221008300781,-7.3655900955200195,0.75
0.8809661865234375,-7.321541786193848,0.75
0.022115707397460938,-7.320436000823975,0.75
-1.021108627319336,-7.371491432189941,-0.031119711697101593
-1.5352725982666016,-7.4482550621032715,-0.30000001192092896
-0.3716850280761719,-7.46683931350708,-0.07988995313644409
0.7786941528320312,-7.4279046058654785,0.75
1.1674976348876953,-7.369529724121094,0.75
1.0152149200439453,-7.3187689781188965,0.75
0.19913673400878906,-7.308812141418457,0.75
-0.8659172058105469,-7.352108001708984,0.18703065812587738
-1.4927959442138672,-7.426747798919678,-0.30000001192092896
-0.3816699981689453,-7.445831298828125,0.02750777266919613
0.7143211364746094,-7.4101152420043945,0.75
1.0726547241210938,-7.35648250579834,0.75
0.9002590179443359,-7.311469554901123,0.75
0.04446983337402344,-7.309246063232422,0.75
-1.0013866424560547,-7.359315395355225,0.05074526369571686
-1.5990066528320312,-7.439265727996826,-0.30000001192092896
-0.4457283020019531,-7.461552143096924,-0.10367574542760849
0.8060264587402344,-7.421250820159912,0.75
1.1792278289794922,-7.3622894287109375,0.75
1.0157012939453125,-7.311504364013672,0.75
0.20066261291503906,-7.30147123336792,0.75
-0.8645153045654297,-7.344696998596191,0.22882182896137238
-1.4925575256347656,-7.41932487487793,-0.30000001192092896
-0.3811168670654297,-7.438380718231201,0.0688246339559555
0.6754398345947266,-7.404608726501465,0.75
0.9478282928466797,-7.357217311859131,0.75
0.7083034515380859,-7.321802139282227,0.75
-0.1932525634765625,-7.331464767456055,0.75
-1.2025260925292969,-7.3915910720825195,-0.26856526732444763
-1.369180679321289,-7.460050106048584,-0.30000001192092896
-0.08554458618164062,-7.464327335357666,0.1400986611843109
0.5581855773925781,-7.436418056488037,0.75
0.7113456726074219,-7.400850772857666,0.75
0.3535747528076172,-7.383172035217285,0.75
-0.6067085266113281,-7.413507461547852,0.0390322208404541
-1.2913703918457031,-7.478075981140137,-0.30000001192092896
-0.2477741241455078,-7.490464687347412,-0.12069498002529144
0.9634876251220703,-7.442290306091309,0.75
1.2929439544677734,-7.37764310836792,0.75
1.0902214050292969,-7.323132038116455,0.75
0.25931358337402344,-7.310166358947754,0.75
-0.8155059814453125,-7.3509416580200195,0.22724831104278564
-1.4542484283447266,-7.423654079437256,-0.30000001192092896
-0.3571510314941406,-7.441511631011963,0.06744572520256042
0.6925201416015625,-7.406885623931885,0.75
0.9638404846191406,-7.358693599700928,0.75
0.7235431671142578,-7.322516441345215,0.75
-0.17780303955078125,-7.331406593322754,0.75
-1.1904716491699219,-7.39093017578125,-0.2566652297973633
-1.3599109649658203,-7.458925724029541,-0.30000001192092896
-0.08645057678222656,-7.463248252868652,0.14513860642910004
0.5603408813476562,-7.4352312088012695,0.75
0.7019138336181641,-7.400135517120361,0.75
0.33364295959472656,-7.383453369140625,0.75
-0.6314373016357422,-7.415025234222412,0.013032259419560432
-1.310586929321289,-7.480554580688477,-0.30000001192092896
-0.2596282958984375,-7.493535995483398,-0.14584092795848846
0.991363525390625,-7.443967819213867,0.75
1.3124656677246094,-7.378344535827637,0.75
1.0903549194335938,-7.323826789855957,0.75
0.2596092224121094,-7.310846328735352,0.75
-0.8158683776855469,-7.351639747619629,0.22312234342098236
-1.4544200897216797,-7.424360752105713,-0.30000001192092896
-0.3565025329589844,-7.442185878753662,0.06415724754333496
0.6944370269775391,-7.407464027404785,0.75
0.9728050231933594,-7.358823776245117,0.75
0.7378673553466797,-7.321930408477783,0.75
-0.15933990478515625,-7.329897403717041,0.75
-1.1744213104248047,-7.388618469238281,-0.2326272875070572
-1.352996826171875,-7.456268310546875,-0.30000001192092896
-0.09683609008789062,-7.4611101150512695,0.14926159381866455
0.5631446838378906,-7.432952880859375,0.75
0.69427490234375,-7.3982391357421875,0.75
0.3180217742919922,-7.382338047027588,0.75
-0.6513690948486328,-7.4149065017700195,-0.0005507019232027233
-1.3249778747558594,-7.4811553955078125,-0.30000001192092896
-0.26801109313964844,-7.494555950164795,-0.15727493166923523
1.001739501953125,-7.444468975067139,0.75
1.3184642791748047,-7.378545761108398,0.75
1.089019775390625,-7.324094772338867,0.75
0.25856971740722656,-7.311166286468506,0.75
-0.8166027069091797,-7.351996421813965,0.22066818177700043
-1.4549064636230469,-7.424741744995117,-0.30000001192092896
-0.357208251953125,-7.442602157592773,0.061363209038972855
0.6961917877197266,-7.407792568206787,0.75
0.9801959991455078,-7.358782768249512,0.75
0.7502841949462891,-7.321268558502197,0.75
-0.14398574829101562,-7.328467845916748,0.75
-1.161355972290039,-7.38653564453125,-0.2119523584842682
-1.3557720184326172,-7.454324245452881,-0.30000001192092896
-0.11321067810058594,-7.45998477935791,0.14359992742538452
0.567474365234375,-7.431611061096191,0.75
0.7094669342041016,-7.396137714385986,0.75
0.3560447692871094,-7.378335475921631,0.75
-0.6258773803710938,-7.4096293449401855,0.04649236798286438
-1.3033199310302734,-7.474795341491699,-0.30000001192092896
-0.2556133270263672,-7.487576007843018,-0.11036739498376846
0.9431171417236328,-7.440420150756836,0.75
1.2788200378417969,-7.376479148864746,0.75
1.0855960845947266,-7.32219934463501,0.75
0.25569915771484375,-7.309414386749268,0.75
-0.8187484741210938,-7.350351810455322,0.22832895815372467
-1.4567089080810547,-7.423187255859375,-0.30000001192092896
-0.3586769104003906,-7.4411211013793945,0.068601593375206
0.6910896301269531,-7.406566619873047,0.75
0.9600067138671875,-7.3585662841796875,0.75
0.7175922393798828,-7.322686672210693,0.75
-0.1852130889892578,-7.331947326660156,0.75
-1.1962223052978516,-7.391758441925049,-0.2652648091316223
-1.3640022277832031,-7.459958553314209,-0.30000001192092896
-0.08411407470703125,-7.4641642570495605,0.14185625314712524
0.5600357055664062,-7.43616247177124,0.75
0.7085704803466797,-7.400733947753906,0.75
0.3470802307128906,-7.383379936218262,0.75
-0.6148815155029297,-7.414124011993408,0.02978144958615303
-1.5482521057128906,-7.491536617279053,-0.30000001192092896
-1.6187667846679688,-7.572474956512451,-0.30000001192092896
-0.21514892578125,-7.583232402801514,-0.30000001192092896
1.0149574279785156,-7.532484531402588,0.557170033454895
1.3478755950927734,-7.465090751647949,0.75
1.0066509246826172,-7.414758205413818,0.75
0.18915176391601562,-7.405300617218018,0.6508409976959229
-0.7560920715332031,-7.443105220794678,-0.23507365584373474
-0.7529163360595703,-7.480751037597656,-0.30000001192092896
0.49727439880371094,-7.455887317657471,0.5971246957778931
0.9824371337890625,-7.406765460968018,0.75
0.7334804534912109,-7.370091438293457,0.75
-0.026998519897460938,-7.37144136428833,0.6808898448944092
-0.9680652618408203,-7.419844627380371,-0.2578090727329254
-0.9908962249755859,-7.46938943862915,-0.30000001192092896
0.2999401092529297,-7.454392433166504,0.4682247042655945
0.829925537109375,-7.412896156311035,0.75
0.6202411651611328,-7.3818840980529785,0.75
-0.11705398559570312,-7.387736797332764,0.5291754007339478
-0.9243392944335938,-7.433953762054443,-0.30000001192092896
-0.5465412139892578,-7.461280822753906,-0.6000000238418579
1.1313724517822266,-7.404712200164795,-0.6000000238418579
2.358980178833008,-7.2867631912231445,-0.6000000238418579
2.9827308654785156,-7.137626647949219,-0.6000000238418579
3.4302616119384766,-6.966113567352295,-0.6000000238418579
3.738422393798828,-6.7791924476623535,-0.6000000238418579
3.939971923828125,-6.582193851470947,-0.6000000238418579
4.05827522277832,-6.379280090332031,-0.6000000238418579
4.115304946899414,-6.1735148429870605,-0.6000000238418579
4.127082824707031,-5.967160701751709,-0.6000000238418579
4.111518859863281,-5.761584758758545,-0.6000000238418579
4.081478118896484,-5.557510852813721,-0.6000000238418579
24.871397018432617,-4.31394100189209,-0.6000000238418579
26.96231460571289,-2.965825319290161,-0.6000000238418579
26.78493881225586,-1.6265783309936523,-0.6000000238418579
26.35250473022461,-0.3089529871940613,-0.6000000238418579
6.18478536605835,0.00028627191204577684,-0.6000000238418579
0.004937245976179838,0.0005331342108547688,-0.6000000238418579
-0.00031038420274853706,0.0005176150007173419,-0.6000000238418579
-0.0017329590627923608,0.00043096704757772386,-0.6000000238418579
-0.0018659245688468218,0.00033767081913538277,-0.6000000238418579
-0.0016054714797064662,0.00025739724515005946,-0.6000000238418579
-0.0012780374381691217,0.00019349537615198642,-0.6000000238418579
-0.0009825080633163452,0.00014436997298616916,-0.6000000238418579
-0.0007411598926410079,0.00010731197835411876,-0.6000000238418579
-0.00055450334912166,7.958681089803576e-05,-0.6000000238418579
-0.0004129346052650362,5.8940080634783953e-05,-0.6000000238418579
-0.0003057039575651288,4.3654883484123275e-05,-0.6000000238418579
-0.0008730976842343807,0.0,-0.6000000238418579
0.0,0.0,-0.6000000238418579
0.0,0.0,-0.6000000238418579
0.0,0.0,-0.6000000238418579
0.0,0.0,-0.6000000238418579
0.0,0.0,-0.6000000238418579
0.0,0.0,-0.6000000238418579
0.0,0.0,-0.6000000238418579
0.0,0.0,-0.6000000238418579
0.0,0.0,-0.6000000238418579
0.0,0.0,-0.6000000238418579
0.0,0.0,-0.6000000238418579
0.0,0.0,-0.6000000238418579
0.0,0.0,-0.6000000238418579
0.0,0.0,-0.6000000238418579
0.0,0.0,-0.6000000238418579
0.0,0.0,-0.6000000238418579
0.0,0.0,-0.6000000238418579
0.0,0.0,-0.6000000238418579
0.0,0.0,-0.6000000238418579
0.0,0.0,-0.6000000238418579
0.0,0.0,-0.6000000238418579
0.0,0.0,-0.6000000238418579
0.0,0.0,-0.6000000238418579
0.0,0.0,-0.6000000238418579
0.0,0.0,-0.6000000238418579
0.0,0.0,-0.6000000238418579
0.0,0.0,-0.6000000238418579
0.0,0.0,-0.6000000238418579
0.0,0.0,-0.6000000238418579
0.0,0.0,-0.6000000238418579
0.0,0.0,-0.6000000238418579
0.0,0.0,-0.6000000238418579
0.0,0.0,-0.6000000238418579
0.0,0.0,-0.6000000238418579
0.0,0.0,-0.6000000238418579
0.0,0.0,-0.6000000238418579
0.0,0.0,-0.6000000238418579
0.0,0.0,-0.6000000238418579
0.0,0.0,-0.6000000238418579
0.0,0.0,-0.6000000238418579
0.0,0.0,-0.6000000238418579
0.0,0.0,-0.6000000238418579
0.0,0.0,-0.6000000238418579
0.0,0.0,-0.6000000238418579
0.0,0.0,-0.6000000238418579
0.0,0.0,-0.6000000238418579
0.0,0.0,0.75
0.00038670143112540245,1.9335071556270123e-05,0.75
-1.7011969089508057,-0.08504050970077515,0.75
0.12082606554031372,-0.07899920642375946,0.75
-3.5958948135375977,-0.2587939500808716,0.75
-3.77640438079834,-0.4476141631603241,0.75
-4.527464389801025,-0.6739873886108398,0.75
-4.694925308227539,-0.9087336659431458,0.75
-4.18798828125,-1.1181330680847168,0.75
-5.282437801361084,-1.382254958152771,0.75
-5.305047035217285,-1.6475073099136353,0.75
-4.247827529907227,-1.8598986864089966,0.75
-5.014278888702393,-2.110612630844116,0.75
-4.890995025634766,-2.3551623821258545,0.75
-4.951901435852051,-2.602757453918457,0.75
-5.089716911315918,-2.857243299484253,0.75
-5.177760124206543,-3.11613130569458,0.75
-5.276293754577637,-3.379945993423462,0.75
-5.142974853515625,-3.637094736099243,0.75
-4.992275238037109,-3.8867084980010986,0.75
-4.815096855163574,-4.127463340759277,0.75
-4.679145812988281,-4.361420631408691,0.75
-4.586048126220703,-4.590723037719727,0.75
-4.518680572509766,-4.816657066345215,0.75
-4.466085433959961,-5.039961338043213,0.75
-4.400501251220703,-5.259986400604248,0.75
-1.0727214813232422,-5.31362247467041,0.75
-0.3142833709716797,-5.329336643218994,0.75
-2.1912288665771484,-5.438898086547852,0.75
-2.0519161224365234,-5.541493892669678,0.75
-3.5348033905029297,-5.718234062194824,0.75
-3.0511856079101562,-5.870793342590332,0.75
-4.229335784912109,-6.0822601318359375,0.75
-3.541088104248047,-6.25931453704834,0.75
-4.541864395141602,-6.48640775680542,0.75
-3.7673473358154297,-6.674775123596191,0.75
-4.7135162353515625,-6.9104509353637695,-0.07813184708356857
-3.321084976196289,-7.076505184173584,0.011947994120419025
-2.6283931732177734,-7.207924842834473,-0.21484094858169556
0.20524024963378906,-7.197662830352783,0.75
0.25551795959472656,-7.184886932373047,0.75
0.9348678588867188,-7.138143539428711,0.75
-0.5698299407958984,-7.166635036468506,0.75
-0.8109092712402344,-7.207180500030518,0.75
-2.398405075073242,-7.32710075378418,-0.30000001192092896
-1.5723609924316406,-7.405718803405762,-0.30000001192092896
-0.8121585845947266,-7.446326732635498,-0.2713044285774231
1.2031745910644531,-7.386168003082275,0.75
0.7971668243408203,-7.346309661865234,0.75
1.2948322296142578,-7.2815680503845215,0.75
-0.2828788757324219,-7.295711994171143,0.75
-0.5855274200439453,-7.32498836517334,0.5396403074264526
-1.988534927368164,-7.424415111541748,-0.30000001192092896
-0.6675815582275391,-7.457794189453125,-0.24116814136505127
0.04624366760253906,-7.455482006072998,0.28411829471588135
1.303243637084961,-7.39031982421875,0.75
0.3741931915283203,-7.371610164642334,0.75
0.39038658142089844,-7.352090835571289,0.75
-0.28662681579589844,-7.366422176361084,0.5251832604408264
-3.2079029083251953,-7.526817321777344,-0.30000001192092896
-0.7030773162841797,-7.561971187591553,-0.30000001192092896
0.6863880157470703,-7.527651786804199,0.34932634234428406
1.1048221588134766,-7.472410678863525,0.75
0.8265113830566406,-7.431085109710693,0.75
0.042972564697265625,-7.42893648147583,0.4200674295425415
-2.206707000732422,-7.539271831512451,-0.30000001192092896
-0.4791069030761719,-7.56322717666626,-0.30000001192092896
1.7159271240234375,-7.477430820465088,0.75
1.7072868347167969,-7.392066478729248,0.75
1.2397098541259766,-7.330080986022949,0.75
0.36777496337890625,-7.311692237854004,0.75
-0.7283210754394531,-7.348108291625977,0.3016144335269928
-1.3880348205566406,-7.417510032653809,-0.30000001192092896
-0.3818798065185547,-7.436604022979736,0.07364274561405182
0.6545162200927734,-7.403878211975098,0.75
0.923614501953125,-7.357697486877441,0.75
0.6772422790527344,-7.323835372924805,0.75
-0.2262401580810547,-7.335147380828857,0.7388423681259155
-1.2172985076904297,-7.396012306213379,-0.30000001192092896
-1.344766616821289,-7.463250637054443,-0.30000001192092896
-0.027475357055664062,-7.464624404907227,0.18094004690647125
0.5799102783203125,-7.435628890991211,0.75
0.6369113922119141,-7.403783321380615,0.75
0.19402503967285156,-7.394082069396973,0.7202964425086975
-0.7546710968017578,-7.4318156242370605,-0.16599029302597046
-1.0001754760742188,-7.4818243980407715,-0.30000001192092896
0.15260696411132812,-7.474194049835205,0.2559215724468231
0.7797431945800781,-7.435206890106201,0.75
0.6484508514404297,-7.40278434753418,0.75
0.012378692626953125,-7.402165412902832,0.5427253246307373
-0.8072090148925781,-7.442525863647461,-0.2643370032310486
-0.49612998962402344,-7.467332363128662,-0.17538800835609436
0.6153011322021484,-7.436567306518555,0.75
1.05987548828125,-7.383573532104492,0.75
0.8881568908691406,-7.339165687561035,0.75
0.09891510009765625,-7.334219932556152,0.75
-0.9495925903320312,-7.381699562072754,-0.03587563335895538
-1.4670181274414062,-7.455050468444824,-0.30000001192092896
-0.3238487243652344,-7.471242904663086,-0.0696888118982315
0.7937049865722656,-7.431557655334473,0.75
1.1803722381591797,-7.372539043426514,0.75
1.0270309448242188,-7.321187496185303,0.75
0.2085590362548828,-7.310759544372559,0.75
-0.8569717407226562,-7.353608131408691,0.18398930132389069
-1.487417221069336,-7.427978992462158,-0.30000001192092896
-0.3765869140625,-7.446808338165283,0.024795930832624435
0.7190895080566406,-7.410853862762451,0.75
1.0832881927490234,-7.356689453125,0.75
0.9134769439697266,-7.311015605926514,0.75
0.06272315979003906,-7.307879447937012,0.75
-0.98663330078125,-7.357211112976074,0.07348699122667313
-1.5865802764892578,-7.436540126800537,-0.30000001192092896
-0.4391670227050781,-7.458498477935791,-0.08167670667171478
0.7880878448486328,-7.419094085693359,0.75
1.1693859100341797,-7.36062479019165,0.75
1.015920639038086,-7.309828758239746,0.75
0.19951820373535156,-7.2998528480529785,0.75
-0.8638191223144531,-7.343043804168701,0.23761537671089172
-1.4937210083007812,-7.41772985458374,-0.30000001192092896
-0.38082122802734375,-7.436770915985107,0.0771467462182045
0.6691169738769531,-7.40331506729126,0.75
0.9256649017333984,-7.35703182220459,0.75
0.6704616546630859,-7.3235087394714355,0.75
-0.23950576782226562,-7.335484027862549,0.7280949950218201
-1.2153911590576172,-7.39625358581543,-0.30000001192092896
-1.3106346130371094,-7.461785316467285,-0.30000001192092896
0.018510818481445312,-7.460859775543213,0.23447760939598083
0.6094264984130859,-7.430388450622559,0.75
0.556488037109375,-7.40256404876709,0.75
-0.004405975341796875,-7.40278434753418,0.5304690003395081
-0.8027553558349609,-7.442922115325928,-0.260656476020813
-0.46329498291015625,-7.4660868644714355,-0.14309905469417572
0.5983543395996094,-7.436169147491455,0.75
1.055917739868164,-7.383373260498047,0.75
0.9031105041503906,-7.338217735290527,0.75
0.11065483093261719,-7.3326849937438965,0.75
-0.9402561187744141,-7.379697799682617,-0.01803531125187874
-1.5037250518798828,-7.454884052276611,-0.30000001192092896
-0.365753173828125,-7.473171710968018,-0.1102888435125351
0.8400630950927734,-7.431168556213379,0.75
1.2044525146484375,-7.370945930480957,0.75
1.0313034057617188,-7.319380760192871,0.75
0.21242141723632812,-7.308759689331055,0.75
-0.8543205261230469,-7.351475715637207,0.1975266933441162
-1.4847183227539062,-7.425711631774902,-0.30000001192092896
-0.3751945495605469,-7.44447135925293,0.038553521037101746
0.7056903839111328,-7.409186840057373,0.75
1.041727066040039,-7.357100486755371,0.75
0.8500289916992188,-7.31459903717041,0.75
-0.017194747924804688,-7.31545877456665,0.75
-1.0548591613769531,-7.368201732635498,-0.03508026897907257
-1.5513992309570312,-7.44577169418335,-0.30000001192092896
-0.3779792785644531,-7.464670658111572,-0.07122503221035004
0.7601070404052734,-7.426665306091309,0.75
1.1553192138671875,-7.368899345397949,0.75
1.0083770751953125,-7.318480491638184,0.75
