acc_x,v_x,pwm
3.1540641659524415,8.258968717487225,0.4000000059604645
2.9757703679229337,8.504166276248148,0.4000000059604645
2.9757703679229337,8.504166276248148,0.4000000059604645
2.183307513042785,8.69879810022737,0.4000000059604645
2.1214751217930474,8.904813081910751,0.4000000059604645
2.1214751217930474,8.904813081910751,0.4000000059604645
2.107630165266118,9.091902497658893,0.4000000059604645
2.17963710734904,9.290984230479364,0.30000001192092896
2.17963710734904,9.290984230479364,0.30000001192092896
1.6417574852903736,9.446308984545842,0.30000001192092896
1.6417574852903736,9.446308984545842,0.30000001192092896
1.4031148965122024,9.571567016477651,0.30000001192092896
2.0843767972154637,9.751194943582899,0.30000001192092896
2.0843767972154637,9.751194943582899,0.30000001192092896
0.8360476164926381,9.83153721455262,0.30000001192092896
1.869166198747798,9.991576241807657,0.30000001192092896
1.869166198747798,9.991576241807657,0.30000001192092896
1.0430776990958504,10.077711578989836,0.30000001192092896
1.5278034941617615,10.189179114646825,0.30000001192092896
1.5278034941617615,10.189179114646825,0.30000001192092896
0.8557189061023129,10.270166824938212,0.30000001192092896
1.0702519180124561,10.36070289427306,0.30000001192092896
0.3987853257166817,10.388983051907122,0.30000001192092896
0.3987853257166817,10.388983051907122,0.30000001192092896
0.5996748315965089,10.451414815613214,0.30000001192092896
0.5996748315965089,10.451414815613214,0.30000001192092896
1.180376874274458,10.581426321330982,0.30000001192092896
1.180376874274458,10.581426321330982,0
0.754976700451894,10.653484094593196,0
0.9203655491084107,10.73136138895294,0
0.9203655491084107,10.73136138895294,0
0.4241575605434756,10.7762238616932,0
0.4241575605434756,10.7762238616932,0
-0.12915763412716216,10.762018154964133,0
-0.501755217256861,10.72220500530055,0
-0.7257303080199167,10.663643788245126,0
-0.7257303080199167,10.663643788245126,0
-0.913119872702071,10.580657846347037,0
-0.913119872702071,10.580657846347037,0
-1.058314937335786,10.475647273895538,0
-1.1562673137671382,10.366731316301907,0
-1.1562673137671382,10.366731316301907,0
-1.217290180606595,10.262326792037129,0
-1.255412025805162,10.161625813750947,0
-1.2792932416691247,10.067334791314387,0
-1.2938597035605683,9.967643314044341,0
-1.2938597035605683,9.967643314044341,0
-1.3034846700010627,9.85646715923161,0.699999988079071
-1.4389862867076797,9.732634874191376,0.699999988079071
-0.7661920018088423,9.671749696961788,0.699999988079071
-0.7440316799700857,9.61715445428435,0.699999988079071
-0.003987333344564123,9.616848086294548,0.699999988079071
-0.003987333344564123,9.616848086294548,0.699999988079071
0.2562797718291876,9.63951706996033,0.699999988079071
0.2562797718291876,9.63951706996033,0.699999988079071
1.2435229358744149,9.7564857564352,0.699999988079071
1.8628200668306432,9.92503677652159,0.699999988079071
1.8628200668306432,9.92503677652159,0.699999988079071
2.8443601174584514,10.17285735785523,0.699999988079071
2.8765430568467805,10.431024280585795,0.699999988079071
3.7754097926590062,10.72547267461476,0.699999988079071
3.7754097926590062,10.72547267461476,0.699999988079071
3.2189381215622412,11.065809172735102,0.699999988079071
4.1753565337919865,11.379079261999252,0.699999988079071
4.1753565337919865,11.379079261999252,0.699999988079071
3.921742388497444,11.752734463910274,0.699999988079071
3.921742388497444,11.752734463910274,0.699999988079071
3.955958103678722,12.139920535490528,0.800000011920929
4.012812443344296,12.473393779673124,0.800000011920929
4.012812443344296,12.473393779673124,0.800000011920929
4.2066035288356725,12.8350892792392,0.800000011920929
4.356695384400593,13.235040288382608,0.800000011920929
4.356695384400593,13.235040288382608,0.800000011920929
4.468995929876821,13.648298343236014,0.800000011920929
4.5486244136403196,14.058463314303534,0.800000011920929
4.5486244136403196,14.058463314303534,0.800000011920929
4.601338365352142,14.42550006726108,0.800000011920929
4.638297314402931,14.818684105300118,0.800000011920929
4.662471198044723,15.179773780170377,0.800000011920929
4.662471198044723,15.179773780170377,0.800000011920929
4.678201133022755,15.532803270408428,0.800000011920929
4.687867935980512,15.936294544545788,0.800000011920929
4.687867935980512,15.936294544545788,0.800000011920929
4.692271892587758,16.30242167372857,0.800000011920929
4.692951546589322,16.779295752655845,0.800000011920929
4.692951546589322,16.779295752655845,0.800000011920929
4.688426639827625,17.193175670562717,0.800000011920929
4.68381934135417,17.598887118835933,0.800000011920929
4.68381934135417,17.598887118835933,0.800000011920929
4.673813365018409,18.05753075727516,0.800000011920929
4.6740245335205675,18.436243543925674,0.800000011920929
4.6740245335205675,18.436243543925674,0.800000011920929
4.613119149453859,19.109379563896102,0.800000011920929
4.613119149453859,19.109379563896102,0.800000011920929
4.513078734061528,19.532509698755042,0.800000011920929
0.23997136534319446,19.55298905084094,0.800000011920929
0.23997136534319446,19.55298905084094,0.800000011920929
1.6201749561152063,19.7095598765338,0.800000011920929
1.6201749561152063,19.7095598765338,0.800000011920929
1.7048286566648458,19.865269911124983,0.800000011920929
2.9674325787229523,20.1431448610861,0.800000011920929
2.9674325787229523,20.1431448610861,0.800000011920929
3.131488103690957,20.414189974967062,0.800000011920929
3.131488103690957,20.414189974967062,0.800000011920929
2.888102990383317,20.912475963797927,0.800000011920929
6.411309289424289,21.40461456059656,0.800000011920929
6.411309289424289,21.40461456059656,0.800000011920929
5.48108772324874,21.91621656821435,0.20000000298023224
5.48108772324874,21.91621656821435,0.20000000298023224
2.306970173549739,22.133078137971573,0.20000000298023224
3.6514975826951077,22.477459644793758,0.20000000298023224
3.6514975826951077,22.477459644793758,0.20000000298023224
0.7958335333466835,22.56082510381083,0.20000000298023224
0.7958335333466835,22.56082510381083,0.20000000298023224
2.352330751100815,22.789974750610657,0.20000000298023224
0.7781311340178221,22.859532273202305,0.20000000298023224
0.7781311340178221,22.859532273202305,0.20000000298023224
1.827334388854772,23.014309579942378,0.20000000298023224
-0.009611930277004901,23.013650954533123,0.20000000298023224
-0.009611930277004901,23.013650954533123,0.20000000298023224
-1.0425270868484844,22.910339975730388,0.20000000298023224
0.7357450204515918,22.976793326753448,0.20000000298023224
0.7357450204515918,22.976793326753448,0.20000000298023224
-0.34912825971250006,22.948597717851612,0.20000000298023224
0.6159665416007892,22.99711297433345,0.20000000298023224
0.6159665416007892,22.99711297433345,0.20000000298023224
-1.1397022032364799,22.89723169858865,0.20000000298023224
-0.5261089390443161,22.84675255867305,-0.5
-0.5261089390443161,22.84675255867305,-0.5
-1.4531558140883685,22.723951937960745,-0.5
-1.4239632762946919,22.585559772594838,-0.5
-1.4239632762946919,22.585559772594838,-0.5
-3.2883248150630497,22.27418746599326,-0.5
-1.6662067741867796,22.14823598414906,-0.5
-1.6662067741867796,22.14823598414906,-0.5
-3.7741263276924673,21.82224997319451,-0.5
-2.4889226062438663,21.615291838276338,-0.5
-4.008571977847883,21.322759001195276,-0.5
-4.008571977847883,21.322759001195276,-0.5
-2.906881560992694,21.08005883807676,-0.5
-4.398228918621269,20.737501570403897,-0.5
-2.8916452961620616,20.524510656319507,-0.5
-4.443325632105959,20.199923254824036,-0.5
-4.443325632105959,20.199923254824036,-0.5
-3.159243016225354,19.922682720336617,-0.5
-4.804528991761872,19.527260616611834,-0.5
-4.804528991761872,19.527260616611834,-0.5
-3.044141297832693,19.283324584953487,-0.4000000059604645
-4.635873431342684,18.93057913523331,-0.4000000059604645
-2.9152789179375564,18.71288662196313,-0.4000000059604645
-2.9152789179375564,18.71288662196313,-0.4000000059604645
-4.560827652802151,18.313870749909498,-0.4000000059604645
-2.794378440443946,18.0762360698035,-0.4000000059604645
-2.794378440443946,18.0762360698035,-0.4000000059604645
-3.889375795244088,17.70028166444515,-0.4000000059604645
-3.889375795244088,17.70028166444515,-0.4000000059604645
-3.428822397160566,17.356986500073972,-0.4000000059604645
-3.4358095354646103,17.054874874394436,-0.4000000059604645
-3.4358095354646103,17.054874874394436,-0.4000000059604645
-3.4301863596606275,16.75129664249659,-0.4000000059604645
-3.4181155906981004,16.432178636568846,-0.4000000059604645
-3.4181155906981004,16.432178636568846,-0.4000000059604645
-3.40220788548492,16.14510710704895,-0.4000000059604645
-3.3824922799555264,15.885662713133195,-0.4000000059604645
-3.3824922799555264,15.885662713133195,-0.4000000059604645
-3.3595995532416167,15.606190982977376,-0.4000000059604645
-3.3368730970424956,15.341299232921083,-0.4000000059604645
-3.3124252937384333,15.088545746152166,-0.800000011920929
-3.3124252937384333,15.088545746152166,-0.800000011920929
-3.5915533491122087,14.746382886380442,-0.800000011920929
-3.5915533491122087,14.746382886380442,-0.800000011920929
-4.093325152768497,14.339273440469315,-0.800000011920929
-4.475357892003844,13.937538900335792,-0.800000011920929
-4.475357892003844,13.937538900335792,-0.800000011920929
-4.475146925884693,13.59023042884794,-0.800000011920929
-4.434277224163863,13.230245442451581,-0.800000011920929
-4.434277224163863,13.230245442451581,-0.800000011920929
-4.392507395519545,12.844039822923245,-0.800000011920929
-4.346661532545285,12.419042122902102,-0.800000011920929
-4.346661532545285,12.419042122902102,-0.800000011920929
-4.302882078435911,12.037120321574276,-0.800000011920929
-4.2592941928225585,11.676678990354102,-0.800000011920929
-4.221954254237419,11.363574305133572,-0.800000011920929
-4.221954254237419,11.363574305133572,-0.800000011920929
-4.184854297037103,11.052643429486412,-0.800000011920929
-4.151927847100539,10.702146472916054,-0.800000011920929
-4.151927847100539,10.702146472916054,-0.800000011920929
-4.112830051158159,10.303389859784028,-0.10000000149011612
-3.576475532948686,9.982399025508093,-0.10000000149011612
-2.6112966294663944,9.743196442663706,-0.10000000149011612
-2.6112966294663944,9.743196442663706,-0.10000000149011612
-2.1394019296870534,9.549196298619528,-0.10000000149011612
-1.6331443376089394,9.39752445369095,-0.10000000149011612
-1.6331443376089394,9.39752445369095,-0.10000000149011612
-1.7664625645033658,9.256681155139715,-0.10000000149011612
-1.4939120744577414,9.139198809441472,-0.10000000149011612
-1.723891128705148,9.00990684979712,-0.10000000149011612
-1.723891128705148,9.00990684979712,-0.10000000149011612
-1.4724141205024217,8.901870229882958,-0.10000000149011612
-1.958910096624194,8.723323477880545,-0.10000000149011612
-1.958910096624194,8.723323477880545,-0.10000000149011612
-1.5046392095889023,8.596095456967433,-0.10000000149011612
-1.7344409605301903,8.461752642063486,-0.10000000149011612
-1.4288537801208527,8.352818770788524,-0.10000000149011612
-1.4288537801208527,8.352818770788524,-0.10000000149011612
-1.8302483907188227,8.200910947802386,-0.10000000149011612
-1.6465953848974508,8.048246019424043,-0.10000000149011612
-1.6465953848974508,8.048246019424043,-0.6000000238418579
-2.1975271073911684,7.847544121323878,-0.6000000238418579
-2.1975271073911684,7.847544121323878,-0.6000000238418579
-2.297454148636993,7.6291066321848025,-0.6000000238418579
-3.0383634326402222,7.368750393987948,-0.6000000238418579
-3.0383634326402222,7.368750393987948,-0.6000000238418579
-2.954555515867023,7.093554778401728,-0.6000000238418579
-7.295214091536785,6.574010004623328,-0.6000000238418579
-16.53017195605788,5.31349938011674,-0.6000000238418579
-18.14175125990528,3.904959340550061,-0.6000000238418579
-24.355360548458368,1.8812641255503912,-0.6000000238418579
-25.587003008112504,0.0335015835873335,-0.6000000238418579
-25.587003008112504,0.0335015835873335,-0.6000000238418579
-0.3419154674637383,0.000514794693710514,-0.6000000238418579
-0.012951803895963452,-0.0005473782045124986,-0.6000000238418579
-0.012951803895963452,-0.0005473782045124986,-0.6000000238418579
-0.006210800277600275,-0.001031657731023445,-0.6000000238418579
-0.002353961314326079,-0.0012212169308010409,-0.6000000238418579
-0.002353961314326079,-0.0012212169308010409,-0.6000000238418579
0.0008720790307549898,-0.0011356567204352623,-0.6000000238418579
-0.0017892249349243017,-0.0012899164730787534,-0.4000000059604645
-0.0004448838430902918,-0.0013243686673143351,-0.4000000059604645
-0.0004448838430902918,-0.0013243686673143351,-0.4000000059604645
0.0012965911841571153,-0.0012229772518082362,-0.4000000059604645
0.002293184245031149,-0.0010209562431876696,-0.4000000059604645
0.000990230485974759,-0.0009326383084791582,-0.4000000059604645
0.000990230485974759,-0.0009326383084791582,-0.4000000059604645
0.0007971171674938754,-0.0008612598778698535,-0.4000000059604645
0.0012339787370734333,-0.0007452852921546803,-0.4000000059604645
0.0012339787370734333,-0.0007452852921546803,-0.4000000059604645
0.0012160861947313145,-0.0006225102375612239,-0.4000000059604645
-0.0016572991668608115,-0.0007635773770731736,-0.4000000059604645
-0.0016572991668608115,-0.0007635773770731736,-0.4000000059604645
0.0006801396960738848,-0.000688664871126073,-0.4000000059604645
0.0006801396960738848,-0.000688664871126073,-0.4000000059604645
0.0025312091238343074,-0.00043433019463138726,-0.4000000059604645
0.005185117673547718,-0.0,-0.4000000059604645
0.005185117673547718,-0.0,-0.4000000059604645
-0.0,-0.0,0
-0.0,-0.0,0.10000000149011612
-0.0,-0.0,0.4000000059604645
-1.5684567590171823,-0.16171917755281312,0.20000000298023224
-1.5684567590171823,-0.16171917755281312,0.10000000149011612
3.029407799218101,0.11337607261859281,0.10000000149011612
3.029407799218101,0.11337607261859281,0.10000000149011612
-3.456515924664287,-0.23913646940794656,0.10000000149011612
3.1094531110814865,0.03420845226958544,0.10000000149011612
3.1094531110814865,0.03420845226958544,0.10000000149011612
-3.4267639355296486,-0.24836172599427866,0.10000000149011612
2.915425442966521,0.041367784990736026,0.10000000149011612
2.915425442966521,0.041367784990736026,0.10000000149011612
-3.4818835370843204,-0.26329384886068763,0.10000000149011612
3.0162408704129087,0.012696302027077298,0.10000000149011612
-3.3778891173492305,-0.2717635497684041,0.10000000149011612
-3.3778891173492305,-0.2717635497684041,0.10000000149011612
3.060111819107415,-0.008338703069932143,0.10000000149011612
-3.2945154064143694,-0.27626232144361124,0.10000000149011612
3.2095257900111327,-0.041833598653426146,0.10000000149011612
3.2095257900111327,-0.041833598653426146,0.10000000149011612
-3.1133425706222964,-0.345594921805045,0.10000000149011612
-3.1133425706222964,-0.345594921805045,0.10000000149011612
3.248315699634522,-0.05867760139051674,0.10000000149011612
-3.1779967445320554,-0.3207595359563017,0.4000000059604645
-3.1779967445320554,-0.3207595359563017,0.4000000059604645
3.04725532580064,-0.029095627561675018,0.4000000059604645
-3.148592689969119,-0.32733993403345557,0.4000000059604645
3.648562487819042,-0.026855351734901518,0.4000000059604645
3.648562487819042,-0.026855351734901518,0.4000000059604645
-1.9033294819197382,-0.2046847118989061,0.4000000059604645
3.932640005607778,0.09892140428940722,0.4000000059604645
3.932640005607778,0.09892140428940722,0.4000000059604645
2.178676786280575,0.2888236246243582,0.4000000059604645
2.178676786280575,0.2888236246243582,0.4000000059604645
2.2663821586715676,0.5351025724341397,0.4000000059604645
2.6377062953938073,0.7996750200318509,0.4000000059604645
2.6377062953938073,0.7996750200318509,0.4000000059604645
0.8455915093076508,0.8742628296837742,0.4000000059604645
1.4441359712355544,0.9862808208758366,0.4000000059604645
2.1417906219191076,1.1581743778408335,0.4000000059604645
2.455468555154597,1.3371654439800975,0.4000000059604645
2.455468555154597,1.3371654439800975,0.4000000059604645
2.606549396588538,1.5520136182644262,0.4000000059604645
2.606549396588538,1.5520136182644262,0.10000000149011612
1.1293280644050507,1.6731748463890594,0.10000000149011612
2.6091073871190207,1.9019316571416633,0.10000000149011612
-0.5574494764283603,1.8557298085245715,0.10000000149011612
-0.5574494764283603,1.8557298085245715,0.10000000149011612
0.7128018368666961,2.141459946049519,0.10000000149011612
0.7128018368666961,2.141459946049519,0.10000000149011612
-2.1598326769863507,1.9337951591479792,0.10000000149011612
-2.1598326769863507,1.9337951591479792,0.10000000149011612
2.864247980766997,2.1965864592176767,0.10000000149011612
-1.4368478388774695,2.058213957187279,0.10000000149011612
-1.4368478388774695,2.058213957187279,0.10000000149011612
1.4338274332350243,2.189310696590047,0.10000000149011612
-1.565487571079315,2.0521564698877985,0.10000000149011612
-1.565487571079315,2.0521564698877985,0.10000000149011612
1.2131608352327832,2.1664187458494477,0.10000000149011612
-0.797629598063042,2.0975336270654616,0.10000000149011612
-0.797629598063042,2.0975336270654616,0.10000000149011612
0.9548715746015092,2.177843188967222,0.10000000149011612
-1.8179086048259288,2.0116514319883794,0.10000000149011612
-1.0764803496528605,1.9366745344727574,1.0
-1.0764803496528605,1.9366745344727574,1.0
-0.10293771667269419,1.9776429784205194,1.0
-0.10293771667269419,1.9776429784205194,1.0
2.7383269717199252,2.1841878945522684,1.0
-0.7113133863720829,2.131179177785439,1.0
3.5574900748125087,2.457600418822876,1.0
3.5574900748125087,2.457600418822876,1.0
1.718432337247509,2.602679964861903,1.0
1.718432337247509,2.602679964861903,1.0
3.967176805225025,3.0022433006761764,1.0
3.0542396454170624,3.2776906085575797,1.0
3.0542396454170624,3.2776906085575797,1.0
7.017030624700155,3.988771401532846,1.0
7.017030624700155,3.988771401532846,1.0
4.951476072360212,4.44491155810107,1.0
6.0834205709580305,4.888979454203777,1.0
6.0834205709580305,4.888979454203777,1.0
5.264303428325824,5.370568763071289,1.0
8.720356597041441,6.08913632485215,1.0
8.720356597041441,6.08913632485215,0.699999988079071
4.6130584498486975,6.549093997750947,0.699999988079071
5.630219921264639,7.109510750479429,0.699999988079071
5.630219921264639,7.109510750479429,0.699999988079071
5.61773905531238,7.619215705831675,0.699999988079071
5.61773905531238,7.619215705831675,0.699999988079071
5.728852846850016,8.116498598690239,0.699999988079071
5.493178876211869,8.558066863873186,0.699999988079071
5.751854853063792,9.002980831289156,0.699999988079071
4.987263697383933,9.429353137817444,0.699999988079071
4.987263697383933,9.429353137817444,0.699999988079071
4.571712446947621,9.86164720215741,0.699999988079071
4.571712446947621,9.86164720215741,0.699999988079071
3.9699196264748937,10.250687192798402,0.699999988079071
4.736946231289874,10.68993161846973,0.699999988079071
4.736946231289874,10.68993161846973,0.699999988079071
4.565151763921688,11.073668494740042,0.699999988079071
4.520418369044826,11.470964475126737,0.699999988079071
4.520418369044826,11.470964475126737,0.699999988079071
4.354728940701484,11.838414119820225,0.699999988079071
4.263433167322028,12.21075854760427,0.699999988079071
4.263433167322028,12.21075854760427,0.699999988079071
4.178591897971737,12.60741973154028,0.699999988079071
4.178591897971737,12.60741973154028,0.699999988079071
4.108854213635167,12.986845496209718,0.699999988079071
4.057508820932343,13.309416374643154,0.699999988079071
4.0189230251918655,13.608605102045534,0.699999988079071
4.0189230251918655,13.608605102045534,0.699999988079071
3.9801780454102254,13.905726791468135,0.699999988079071
3.948201952988542,14.288707524284362,0.699999988079071
3.948201952988542,14.288707524284362,0.699999988079071
3.916021648649314,14.643665384213836,0.699999988079071
3.8925174115286545,14.956912667119825,0.699999988079071
3.8710987199247042,15.33802732894559,0.699999988079071
3.8710987199247042,15.33802732894559,0.699999988079071
3.8463015248052423,15.679977644968174,0.699999988079071
3.8463015248052423,15.679977644968174,0.699999988079071
3.8269320105990334,16.056955688882166,0.699999988079071
3.8055483390631264,16.40318882853317,0.699999988079071
3.788300444388814,16.743277949767084,0.699999988079071
3.788300444388814,16.743277949767084,0.5
3.647289607105839,17.06135892606213,0.5
3.647289607105839,17.06135892606213,0.5
2.913317271721206,17.607571761502157,0.5
2.913317271721206,17.607571761502157,0.5
2.704119039456067,17.794391422000498,0.5
2.5104103668211892,18.036866559062183,0.5
2.5104103668211892,18.036866559062183,0.5
2.3654436581884655,18.25814128243787,0.5
2.086803638015729,18.44683182547675,0.5
2.086803638015729,18.44683182547675,0.5
2.3697028149115296,18.634173936250868,0.5
-1.0127953627183999,18.554123181090105,0.5
-1.6132112247844552,18.441974334212897,0.5
-1.6132112247844552,18.441974334212897,0.5
1.701473207044632,18.5840005628077,0.5
-0.22089244482311224,18.566674502916644,0.5
1.112230762276869,18.65628262157871,0.5
1.112230762276869,18.65628262157871,0.5
-0.8608019251936069,18.573947134808947,0.5
2.255500481097586,18.759514005917936,0.800000011920929
2.255500481097586,18.759514005917936,0.800000011920929
-0.3818957463588884,18.72572164497762,0.800000011920929
3.3187231399882773,18.97565580017265,0.800000011920929
3.3187231399882773,18.97565580017265,0.800000011920929
-0.2548762288152101,18.951129729264544,0.800000011920929
-0.2548762288152101,18.951129729264544,0.800000011920929
2.2083136503617284,19.162498231329977,0.800000011920929
1.2822668265319912,19.284578266709786,0.800000011920929
1.2822668265319912,19.284578266709786,0.800000011920929
5.299589120559128,19.723778154716175,0.800000011920929
1.782127759877262,19.885191917732982,0.800000011920929
6.5077782557032995,20.39376963433461,0.800000011920929
6.5077782557032995,20.39376963433461,0.800000011920929
1.7155071836720337,20.556391918226467,0.800000011920929
6.555015581459631,21.101772244878735,0.800000011920929
6.555015581459631,21.101772244878735,0.800000011920929
6.192167791472877,21.88459844466291,0.800000011920929
6.192167791472877,21.88459844466291,0.800000011920929
4.742982694753843,22.239553131052183,0.800000011920929
3.5459251015554063,22.576879606894586,0.5
3.5459251015554063,22.576879606894586,0.5
5.268181152437574,23.342739528061013,0.5
5.268181152437574,23.342739528061013,0.5
2.753377815090501,23.57711699555762,0.5
2.370903770100036,23.8059361850875,0.5
2.370903770100036,23.8059361850875,0.5
3.0062544299658898,24.04623874398244,0.5
3.0062544299658898,24.04623874398244,0.5
1.903512964296018,24.23101700397154,0.5
1.3922594072771404,24.358592839840068,0.5
3.620864290358661,24.637739477780546,0.5
3.620864290358661,24.637739477780546,0.5
0.7647974008747231,24.710378736608373,0.5
3.8044394384349838,24.99305785741668,0.5
1.5890927917956903,25.106249673921695,0.5
1.5890927917956903,25.106249673921695,0.5
0.9331844304366179,25.18560528680885,0.5
3.019615842107475,25.40303783930972,0.5
0.7751423618150951,25.474523774827208,0.5
0.7751423618150951,25.474523774827208,0.6000000238418579
2.8512932112006513,25.69037200342192,0.6000000238418579
0.26455330600663507,25.716694700157994,0.6000000238418579
0.26455330600663507,25.716694700157994,0.6000000238418579
1.8153955411243634,25.888703456019638,0.6000000238418579
1.7939406807400362,26.03289588515185,0.6000000238418579
1.7939406807400362,26.03289588515185,0.6000000238418579
2.0857420575013244,26.22241107512743,0.6000000238418579
2.251435350210503,26.39457264927753,0.6000000238418579
1.230480636666746,26.481575941717107,0.6000000238418579
1.230480636666746,26.481575941717107,0.6000000238418579
0.2121529188765005,26.496811761892154,0.6000000238418579
4.515463370472289,26.823503304813908,0.6000000238418579
3.0743240633468,27.09053721227735,0.6000000238418579
3.0743240633468,27.09053721227735,0.6000000238418579
2.7579049420286106,27.320797106835975,0.6000000238418579
2.7579049420286106,27.320797106835975,0.6000000238418579
0.2156832981090031,27.343705816438558,0.6000000238418579
2.237821939138771,27.55977347708159,0.6000000238418579
2.237821939138771,27.55977347708159,0.6000000238418579
0.686834089659339,27.628748979160818,0
0.686834089659339,27.628748979160818,0
2.761722764694071,27.87768084618314,0
0.7306054328216105,27.947311948502307,0
0.7306054328216105,27.947311948502307,0
1.8373453000106528,28.095357056670835,0
-0.31161000597424454,28.06844849624554,0
-0.31161000597424454,28.06844849624554,0
-0.37426469235075577,28.03395141369837,0
-1.37450892358327,27.926427221958644,0
-1.37450892358327,27.926427221958644,0
-1.175028899352938,27.822593088985233,0
-2.139048154834004,27.662537173438704,0
-1.6547475131979512,27.528921814883393,0
-2.679747692122578,27.32571755195783,0
-2.0187507528597513,27.171946159451128,0
-2.0187507528597513,27.171946159451128,0
-2.655714097267913,26.993981975171778,0
-3.8004145495457133,26.60957366918387,0
-3.8004145495457133,26.60957366918387,0
-2.3462210228346994,26.390976206467123,-0.4000000059604645
-3.7476235367458206,26.057855557259952,-0.4000000059604645
-3.7476235367458206,26.057855557259952,-0.4000000059604645
-2.9072917924049047,25.797561208413587,-0.4000000059604645
-4.6401162368762865,25.365781327886094,-0.4000000059604645
-4.6401162368762865,25.365781327886094,-0.4000000059604645
-3.3680417495402653,25.051825510307555,-0.4000000059604645
-3.3680417495402653,25.051825510307555,-0.4000000059604645
-4.93547911748442,24.574084143150184,-0.4000000059604645
-3.3053937031934675,24.299847281391138,-0.4000000059604645
-4.850535303127366,23.8925539429694,-0.4000000059604645
-4.850535303127366,23.8925539429694,-0.4000000059604645
-3.4297583654781754,23.62733191477669,-0.4000000059604645
-4.8478390484228475,23.221266616624845,-0.4000000059604645
-3.450726764638015,22.92348827045526,-0.4000000059604645
-3.450726764638015,22.92348827045526,-0.4000000059604645
-4.999766708469986,22.403423490351553,-0.4000000059604645
-4.999766708469986,22.403423490351553,-0.4000000059604645
-3.1260916295604084,22.15090722616576,-0.4000000059604645
-4.979659060866701,21.66485849752309,-0.4000000059604645
-4.979659060866701,21.66485849752309,-1.0
-3.282132499905987,21.37795056366022,-1.0
-5.4283700495431235,20.938569030085343,-1.0
-5.4283700495431235,20.938569030085343,-1.0
-3.83704353673704,20.58629241247993,-1.0
-3.83704353673704,20.58629241247993,-1.0
-5.870059398746314,20.01659869299607,-1.0
-4.330148466079999,19.668085853459562,-1.0
-4.330148466079999,19.668085853459562,-1.0
-12.198196274940518,18.385543978009295,-1.0
-12.198196274940518,18.385543978009295,-1.0
-27.074052500965013,15.683916913786753,-1.0
-27.409748979836944,13.074139142996268,-1.0
-27.409748979836944,13.074139142996268,-1.0
-27.341205920733078,10.725800080963992,-1.0
-27.180532955244967,8.321892857109852,-1.0
-27.180532955244967,8.321892857109852,-1.0
-27.032775185338515,5.596869241283644,-1.0
-27.032775185338515,5.596869241283644,-1.0
-26.998263929462063,3.138740136203731,-1.0
-26.096739924108277,0.5322499485337703,-0.800000011920929
-26.096739924108277,0.5322499485337703,-0.800000011920929
-5.678742764076387,-0.0007206225613493723,-0.800000011920929
-5.678742764076387,-0.0007206225613493723,-0.800000011920929
-0.012304170961480166,-0.0019146800480364656,-0.800000011920929
-0.005887665708834361,-0.002468225275265268,-0.800000011920929
-0.005887665708834361,-0.002468225275265268,-0.800000011920929
-0.003727094337457202,-0.002768316296158871,-0.800000011920929
0.0027110855094756225,-0.0025164910688947398,-0.800000011920929
0.0027110855094756225,-0.0025164910688947398,-0.800000011920929
-0.0007949650627322247,-0.00257953546671681,-0.800000011920929
0.002510780072770964,-0.0023807515946267965,-0.800000011920929
0.002510780072770964,-0.0023807515946267965,-0.800000011920929
0.004983903319604978,-0.0018907808060292777,-0.800000011920929
-0.0005484768047973675,-0.001937048924502581,-0.800000011920929
-0.0005484768047973675,-0.001937048924502581,-0.800000011920929
0.0016448444279430366,-0.0018062378668500891,-0.800000011920929
0.003787628762796515,-0.001460941909945571,-0.800000011920929
-0.0010776276165901859,-0.0015424320208199096,-0.800000011920929
-0.0010776276165901859,-0.0015424320208199096,-0.800000011920929
0.0040755217563364496,-0.0011691856610426894,-0.8999999761581421
-0.0012721177329646919,-0.0012672369607568622,-0.8999999761581421
0.0008791786481889484,-0.0012034558665520577,-0.8999999761581421
0.0008791786481889484,-0.0012034558665520577,-0.8999999761581421
0.003675218532945273,-0.0008780546608532455,-0.8999999761581421
0.003675218532945273,-0.0008780546608532455,-0.8999999761581421
0.0015592751435340034,-0.0007297734532255554,-0.8999999761581421
0.008294483158576366,-0.0,-0.8999999761581421
-0.0,-0.0,-0.8999999761581421
-0.0,-0.0,0.5
0.00010344964340425337,1.0673731936629042e-05,0.4000000059604645
-0.005867970788126432,-0.0005014494653090373,1.0
-0.005867970788126432,-0.0005014494653090373,1.0
-0.0016216250663257448,-0.0006397741130985163,1.0
-0.0016216250663257448,-0.0006397741130985163,1.0
2.776604317512606,0.2714586583823463,1.0
-3.685090038243433,-0.028359062175844194,1.0
2.675504795473079,0.17548543872817,1.0
2.675504795473079,0.17548543872817,1.0
4.014123122321833,0.49941051402394526,1.0
3.407361080928819,0.8283521065492314,1.0
5.754029444422908,1.2769549952919683,1.0
5.754029444422908,1.2769549952919683,1.0
4.400202932443218,1.7156970457455805,1.0
4.400202932443218,1.7156970457455805,1.0
5.450492955369924,2.1842780846930108,1.0
4.409790033510709,2.6228606187732924,1.0
4.409790033510709,2.6228606187732924,1.0
6.292072435809173,3.1894062285773397,1.0
6.415081658753178,3.7927455572665596,1.0
6.415081658753178,3.7927455572665596,1.0
5.527190431946197,4.25560661934171,0.8999999761581421
5.527190431946197,4.25560661934171,0.8999999761581421
7.236018248990278,4.906752979874528,0.8999999761581421
6.514795924336876,5.543332899220386,0.8999999761581421
6.514795924336876,5.543332899220386,0.8999999761581421
5.980479640947113,6.078880138786998,0.8999999761581421
7.2548444263458425,6.727697576563599,0.8999999761581421
6.899302607359327,7.340940615286404,0.8999999761581421
6.899302607359327,7.340940615286404,0.8999999761581421
6.278940980205533,7.936199586957029,0.8999999761581421
6.278940980205533,7.936199586957029,0.8999999761581421
5.691642462609726,8.514215376366414,0.8999999761581421
6.50141761028462,9.120077914336072,0.8999999761581421
6.50141761028462,9.120077914336072,0.8999999761581421
6.538290970671266,9.715631418253889,0.8999999761581421
6.538290970671266,9.715631418253889,0.8999999761581421
6.306153948901155,10.314532148394418,0.8999999761581421
6.3968908348813756,10.887962064009583,0.8999999761581421
6.3968908348813756,10.887962064009583,0.8999999761581421
6.216882390735734,11.41641137178005,0.8999999761581421
6.094705472184689,11.85365430152887,0.4000000059604645
6.094705472184689,11.85365430152887,0.4000000059604645
5.798196763041694,12.446935815232957,0.4000000059604645
4.997004846587826,12.912269504549736,0.4000000059604645
4.997004846587826,12.912269504549736,0.4000000059604645
4.082310422021408,13.268796797978146,0.4000000059604645
3.3515738670851274,13.593791644633491,0.4000000059604645
2.827911388491592,13.81106303511576,0.4000000059604645
2.827911388491592,13.81106303511576,0.4000000059604645
2.4774511054981696,14.0022668483726,0.4000000059604645
2.199657231025461,14.169557296179182,0.4000000059604645
2.199657231025461,14.169557296179182,0.4000000059604645
1.9598739061044197,14.357640460836526,0.4000000059604645
1.7523476010505274,14.508452598067336,0.4000000059604645
1.7523476010505274,14.508452598067336,0.4000000059604645
1.6130464106804718,14.6526100764131,0.4000000059604645
1.6130464106804718,14.6526100764131,0.4000000059604645
1.4971558997163565,14.807496987413044,0.4000000059604645
1.4066090338136685,14.927094868926515,0.4000000059604645
1.3575631306542741,15.023357786077154,0.4000000059604645
1.3575631306542741,15.023357786077154,0.6000000238418579
1.3828223852709014,15.143283860968761,0.6000000238418579
1.6512606163015298,15.283828011677057,0.6000000238418579
1.6512606163015298,15.283828011677057,0.6000000238418579
1.9409268244291245,15.45664299695516,0.6000000238418579
2.164289541018584,15.656144279991917,0.6000000238418579
2.164289541018584,15.656144279991917,0.6000000238418579
2.3179257766240515,15.835870613428662,0.6000000238418579
2.441033690614667,16.078261895189833,0.6000000238418579
2.441033690614667,16.078261895189833,0.6000000238418579
2.5289662690189934,16.301059147787246,0.6000000238418579
2.594268339882907,16.544335791322887,0.6000000238418579
2.594268339882907,16.544335791322887,0.6000000238418579
2.633840902694609,16.74803833452425,0.6000000238418579
2.6671861137562773,17.016397363640543,0.6000000238418579
2.6671861137562773,17.016397363640543,0.6000000238418579
2.683378205761276,17.253083027494448,0.6000000238418579
2.6951711620015693,17.45873191758574,0.6000000238418579
2.701462687702545,17.66151219478282,0.6000000238418579
2.701462687702545,17.66151219478282,0.6000000238418579
2.7031104832277175,17.885458170891507,0
2.7031104832277175,17.885458170891507,0
2.569060444015792,18.136794233766675,0
1.7223567648386207,18.287035628309376,0
0.4584948349894815,18.319371169273555,0
0.4584948349894815,18.319371169273555,0
-0.46299115260127066,18.280224730136084,0
-2.8685990464123665,18.015767320588413,0
-2.8685990464123665,18.015767320588413,0
-0.7252673834753427,17.949679998920608,0
-0.6695918776247674,17.89077633682354,0
-0.6695918776247674,17.89077633682354,0
-1.0182957842362326,17.80774532396414,0
-1.3610859497764554,17.676931805879324,0
-1.6116708091857588,17.55252384653573,0
-1.6116708091857588,17.55252384653573,0
-1.7856802124085767,17.38073819683599,0
-1.9238224748351993,17.217195131365205,0
-1.9238224748351993,17.217195131365205,0
-2.006875165373614,17.067906230209054,0
-2.065982770343033,16.876923306192193,0
-2.065982770343033,16.876923306192193,0
-2.1147781439721336,16.675072388133003,0
-2.1431533456158562,16.515467798072244,0
-2.1431533456158562,16.515467798072244,0
-2.151811862120847,16.31732092064272,0
-2.160254809619422,16.116507935378003,0
-2.160254809619422,16.116507935378003,0
-2.159539549885621,15.933685666766888,0
-2.150268257999818,15.731417089901244,0
-2.150268257999818,15.731417089901244,0
-2.1414234076405614,15.542303119563398,0
-2.126448265602551,15.350606124543685,0
-2.126448265602551,15.350606124543685,0
-2.110087272594963,15.147996105124811,0
-2.0962421515230454,14.982535841456498,0
-2.0769155763088403,14.81891015318359,0
-2.0769155763088403,14.81891015318359,0
-2.0590475593431767,14.63970112204058,0
-2.040399632690382,14.449046071867977,0
-2.0231106498195808,14.287323765764478,0.6000000238418579
-2.0231106498195808,14.287323765764478,0.6000000238418579
-1.925320296461204,14.125773994811643,0.6000000238418579
-1.6487150620575295,14.015769290379193,0.6000000238418579
-1.1601653702669632,13.902836400723551,0.6000000238418579
-1.1601653702669632,13.902836400723551,0.6000000238418579
-0.400992115875729,13.864442115487103,0.6000000238418579
-0.400992115875729,13.864442115487103,0.6000000238418579
0.4055037711180403,13.900468318524403,0.6000000238418579
0.988321625087744,13.971436363268046,0.6000000238418579
1.388309661350457,14.081517450076499,0.6000000238418579
1.388309661350457,14.081517450076499,0.6000000238418579
1.7377184836023027,14.219830323971548,0.6000000238418579
1.9989398249183565,14.378876249097747,0.6000000238418579
2.1907215184018454,14.539716127970738,0.6000000238418579
2.1907215184018454,14.539716127970738,0.6000000238418579
2.339271453582081,14.724465762250166,0.6000000238418579
2.45898185598955,14.934250448280867,0.6000000238418579
2.5439684122608037,15.122332661063082,0.6000000238418579
2.5439684122608037,15.122332661063082,0.6000000238418579
2.6099098657895716,15.336790428887575,0.6000000238418579
2.65777769064782,15.556850480027798,0.6000000238418579
2.65777769064782,15.556850480027798,0.6000000238418579
2.695877013843234,15.81895092328858,0.6000000238418579
2.695877013843234,15.81895092328858,0.6000000238418579
2.7341177950517164,16.33674069653853,0.6000000238418579
2.7341177950517164,16.33674069653853,0.6000000238418579
2.742618405385185,16.577057171559773,0.6000000238418579
2.742618405385185,16.577057171559773,0.6000000238418579
2.7458347834097774,16.868825693020156,0.6000000238418579
2.7390705216908717,17.12249693881086,0.6000000238418579
2.7390705216908717,17.12249693881086,0.6000000238418579
2.7359027373957225,17.3475080770735,0.6000000238418579
2.730626299719112,17.580375581519892,0.6000000238418579
2.730626299719112,17.580375581519892,0.6000000238418579
2.721476408316197,17.82945684769337,0.6000000238418579
2.721476408316197,17.82945684769337,0.6000000238418579
2.7158851437339404,18.098325874194877,0.6000000238418579
2.672039171797994,18.314118841431213,0.6000000238418579
2.672039171797994,18.314118841431213,0.6000000238418579
2.7889144114242943,18.597236603957988,0
2.6629493504404267,18.784115490874825,0
2.6629493504404267,18.784115490874825,0
-1.9933723255117646,18.58881634338755,0
-0.5181849693256885,18.53754914101215,0
-0.5181849693256885,18.53754914101215,0
-1.0059211579413172,18.461847450811103,0
-1.0774386165900096,18.363757342582794,0
-2.385093913975267,18.157566556929297,0
-2.385093913975267,18.157566556929297,0
-1.365921637400578,18.027800864231907,0
-1.365921637400578,18.027800864231907,0
-0.8281781217208215,17.946264034466992,0
-0.4813790031587031,17.900965735816467,0
-0.4813790031587031,17.900965735816467,0
-1.0019283239402352,17.812790095967777,0
-1.0019283239402352,17.812790095967777,0
-1.3594943156150006,17.68677349890249,0
-1.6240298468612864,17.54018697105008,0
-1.8023066909336845,17.395463031826488,0
-1.8023066909336845,17.395463031826488,0.10000000149011612
-1.8493959727311624,17.263580723491415,0.10000000149011612
-1.7861463182142263,17.100282067491992,0.10000000149011612
-1.7861463182142263,17.100282067491992,0.10000000149011612
-1.7079664459155448,16.944228081096636,0.10000000149011612
-1.6467829786032464,16.78728967037269,0.10000000149011612
-1.6467829786032464,16.78728967037269,0.10000000149011612
-1.6043221446885687,16.662538208132634,0.10000000149011612
-1.5665066113261858,16.539910389888675,0.10000000149011612
-1.536716989433029,16.414274884020514,0.10000000149011612
-1.536716989433029,16.414274884020514,0.10000000149011612
-1.5104289370723671,16.288058180035843,0.10000000149011612
-1.4865920785134386,16.15862554048096,0.10000000149011612
-1.4677753333776098,16.045750504427872,0.10000000149011612
-1.4677753333776098,16.045750504427872,0.10000000149011612
-1.4450483972225805,15.909667099290793,0.10000000149011612
-1.4450483972225805,15.909667099290793,0.10000000149011612
-1.4277214721843592,15.769680552337432,0.10000000149011612
-1.4099047185695857,15.635018927772451,0.10000000149011612
-1.4099047185695857,15.635018927772451,0.10000000149011612
-1.3941960537769975,15.514821750108185,-0.4000000059604645
-1.712572638983109,15.378964052630845,-0.4000000059604645
-1.712572638983109,15.378964052630845,-0.4000000059604645
-2.295917674812227,15.198724934982978,-0.4000000059604645
-2.858387092773623,14.947255979485938,-0.4000000059604645
-3.1023194632788584,14.707507309779539,-0.4000000059604645
-3.1023194632788584,14.707507309779539,-0.4000000059604645
-3.139676313777954,14.467838742800584,-0.4000000059604645
-3.160597545898782,14.243264281674072,-0.4000000059604645
-3.185290469739706,14.003962685210842,-0.4000000059604645
-3.1829850875484245,13.757599680503835,-0.4000000059604645
-3.1829850875484245,13.757599680503835,-0.4000000059604645
-3.181663325094907,13.523824320487499,-0.4000000059604645
-3.1736191929925037,13.28354497033553,-0.4000000059604645
-3.161224696473182,13.033663123503,-0.4000000059604645
-3.161224696473182,13.033663123503,-0.4000000059604645
-3.144563243129413,12.770043124095034,-0.4000000059604645
-3.124264934185462,12.496838170646432,-0.4000000059604645
-3.124264934185462,12.496838170646432,-0.4000000059604645
-3.1011523910343537,12.225984726402285,-0.4000000059604645
-3.079225936703294,11.994997822785455,-0.5
-3.3109728618479735,11.700095808034687,-0.5
-3.3109728618479735,11.700095808034687,-0.5
-3.369703653868403,11.383409079600431,-0.5
-3.2249139275527985,11.117890469292636,-0.5
-3.2249139275527985,11.117890469292636,-0.5
-3.389127769461864,10.797377191149069,-0.5
-3.075564931115001,10.552001061449033,-0.5
-3.2129746160657295,10.323511913025119,-0.5
-3.2129746160657295,10.323511913025119,-0.5
-3.3635914829690328,10.067862994081526,-0.5
-3.111498708165468,9.749793390493439,-0.5
-3.111498708165468,9.749793390493439,-0.5
-3.4492394672577538,9.401328863119417,-0.5
-3.4492394672577538,9.401328863119417,-0.5
-2.9404005107302447,9.125039687491466,-0.5
-3.282609101404857,8.838669319491556,-0.5
-3.282609101404857,8.838669319491556,-0.5
-2.9291445365458033,8.565153180157893,-0.5
-3.294418634492385,8.265870387837326,-0.5
-3.294418634492385,8.265870387837326,-0.699999988079071
-3.1351291989826664,7.968568231468432,-0.699999988079071
-3.1351291989826664,7.968568231468432,-0.699999988079071
-3.8489665740750443,7.634127440840612,-0.699999988079071
-3.3087992534881097,7.370896323337428,-0.699999988079071
-3.3087992534881097,7.370896323337428,-0.699999988079071
-3.831427320998194,7.024092399612151,-0.699999988079071
-3.3007326257764724,6.739608343603518,-0.699999988079071
-3.3007326257764724,6.739608343603518,-0.699999988079071
-12.007073956550732,5.543802338986725,-0.699999988079071
-27.283734156000907,3.372618774257782,-0.699999988079071
-27.283734156000907,3.372618774257782,-0.699999988079071
-26.332669993194518,0.713529071333589,-0.699999988079071
-9.151964435328477,0.0007466302813476036,-0.699999988079071
-9.151964435328477,0.0007466302813476036,-0.699999988079071
-0.01413541606558694,-0.0003723607594102257,-0.699999988079071
-0.00724640105085493,-0.0009547828093860941,-0.699999988079071
-0.00724640105085493,-0.0009547828093860941,-0.699999988079071
-0.001556830535204607,-0.0011005429599823017,-0.699999988079071
-0.001556830535204607,-0.0011005429599823017,-0.699999988079071
-8.249137631847399e-05,-0.0011092115028393343,-0.800000011920929
-0.0023707619734814416,-0.001337820171664529,-0.800000011920929
-0.0037713101316150005,-0.0016202610782202111,-0.800000011920929
-0.0037713101316150005,-0.0016202610782202111,-0.800000011920929
0.0042664418079235746,-0.001226705236846836,-0.800000011920929
0.004454827511824043,-0.0009116971892043549,-0.800000011920929
-0.007138164528270545,-0.0014329619546218971,-0.800000011920929
0.00973641069032785,-0.0007376526170170272,-0.800000011920929
0.00973641069032785,-0.0007376526170170272,-0.800000011920929
-0.002260785593978068,-0.000952106843683523,-0.800000011920929
-0.002482201781817884,-0.0011450938949649438,-0.800000011920929
-0.002482201781817884,-0.0011450938949649438,-0.800000011920929
0.0031824900926971443,-0.0008640687694428889,-0.800000011920929
0.0008529719728713763,-0.0007883591732563843,-0.800000011920929
-0.001317297144303463,-0.0008911659520665418,-0.800000011920929
-0.001317297144303463,-0.0008911659520665418,-0.800000011920929
0.0025860245646770305,-0.0006656254184815026,-0.800000011920929
0.008143184976444506,-0.0,-0.800000011920929
0.008143184976444506,-0.0,-0.800000011920929
-0.0,-0.0,0.10000000149011612
-0.0018747149860891448,-0.00014385100843602015,0
-0.0018747149860891448,-0.00014385100843602015,0.30000001192092896
-0.0024550196398946257,-0.0003328025374500418,0.30000001192092896
-0.0005898084777304854,-0.0003816075076729216,0.30000001192092896
-0.0005898084777304854,-0.0003816075076729216,0.30000001192092896
2.0626614395589598,0.19115031046524675,0.30000001192092896
-3.767959786381748,-0.11480038930983573,0.30000001192092896
-3.767959786381748,-0.11480038930983573,0.30000001192092896
2.706783309130728,0.1445174896582404,0.30000001192092896
-3.61608948893716,-0.18422648277274528,0.30000001192092896
-3.61608948893716,-0.18422648277274528,0.30000001192092896
2.9069721029905615,0.08525625090362436,0.30000001192092896
-3.22878356772663,-0.19183956133565405,0.30000001192092896
-3.22878356772663,-0.19183956133565405,0.30000001192092896
3.2076805806189044,0.08918640197236515,0.30000001192092896
3.2076805806189044,0.08918640197236515,0.30000001192092896
-1.9866562152202463,-0.12013950581081977,0.30000001192092896
3.794245610982616,0.2707770085717627,0.30000001192092896
3.794245610982616,0.2707770085717627,0.30000001192092896
1.1244598910991945,0.370665392617836,0.30000001192092896
1.1244598910991945,0.370665392617836,0.30000001192092896
-0.4284868864576517,0.3280793808877304,0.5
1.8722092252103664,0.4852495665052643,0.5
1.8722092252103664,0.4852495665052643,0.5
1.9631612008897372,0.6776978140464085,0.5
2.695838975327319,0.9061401991067486,0.5
2.695838975327319,0.9061401991067486,0.5
1.9686708856744186,1.095208427482886,0.5
2.874751957817197,1.3315277794538747,0.5
2.874751957817197,1.3315277794538747,0.5
2.628306978136392,1.5351204398232834,0.5
3.2366718470676346,1.7935740990603068,0.5
3.2366718470676346,1.7935740990603068,0.5
2.2238780822754523,2.027839125738135,0.5
2.2238780822754523,2.027839125738135,0.5
-0.1411896436277368,2.0133157484669413,0.5
4.784061982333967,2.4401811905046036,0.5
4.784061982333967,2.4401811905046036,0.5
3.0260595577900142,2.714927090491105,0.5
3.035259505512894,2.9544402017569253,0.5
1.7705968442450597,3.0926697590923538,0.5
1.7705968442450597,3.0926697590923538,0.6000000238418579
3.4064952771666976,3.388402947683525,0.6000000238418579
1.961251037520119,3.5627477607448244,0.6000000238418579
1.961251037520119,3.5627477607448244,0.6000000238418579
5.074689204492347,3.9726385020447066,0.6000000238418579
1.422647273916128,4.109555144870928,0.6000000238418579
1.422647273916128,4.109555144870928,0.6000000238418579
4.537931393060483,4.578285146988271,0.6000000238418579
4.537931393060483,4.578285146988271,0.6000000238418579
2.4654260080223644,4.780196725730748,0.6000000238418579
5.551965450633236,5.231451905400826,0.6000000238418579
2.048512499511356,5.414658515350989,0.6000000238418579
2.048512499511356,5.414658515350989,0.6000000238418579
5.5714579742705395,5.8662884450258295,0.6000000238418579
2.0847200116055005,6.05665887545772,0.6000000238418579
2.0847200116055005,6.05665887545772,0.6000000238418579
5.059365220322006,6.518498355141773,0.6000000238418579
5.059365220322006,6.518498355141773,0.6000000238418579
1.982706723974157,6.7108689667154335,0.6000000238418579
4.933859654515419,7.180587884815068,0.6000000238418579
4.933859654515419,7.180587884815068,0.800000011920929
2.2806539991652763,7.4022602186339395,0.800000011920929
5.22388412358273,7.824160475563597,0.800000011920929
5.22388412358273,7.824160475563597,0.800000011920929
3.1491268281744076,8.103060007235396,0.800000011920929
4.379125075466933,8.479517624403071,0.800000011920929
4.379125075466933,8.479517624403071,0.800000011920929
4.443177921178455,8.847283135152269,0.800000011920929
4.509094768496112,9.259042563213809,0.800000011920929
4.509094768496112,9.259042563213809,0.800000011920929
3.7831209234320387,9.656541793380276,0.800000011920929
3.7831209234320387,9.656541793380276,0.800000011920929
5.24449743244364,10.1510717939814,0.800000011920929
5.24449743244364,10.1510717939814,0.800000011920929
4.827994411906866,10.615342151208267,0.800000011920929
5.3176531980103885,11.136468637000515,0.800000011920929
5.3176531980103885,11.136468637000515,0.800000011920929
5.041918917458203,11.591808986189175,0.800000011920929
5.041918917458203,11.591808986189175,0.800000011920929
5.053566475338533,12.083413479517175,0.800000011920929
4.937192949883853,12.529942239697732,0.20000000298023224
4.937192949883853,12.529942239697732,0.20000000298023224
4.710977587530157,12.989125293612227,0.20000000298023224
4.710977587530157,12.989125293612227,0.20000000298023224
3.8897397112361447,13.405435860007998,0.20000000298023224
2.7687824358407136,13.66096921424592,0.20000000298023224
2.7687824358407136,13.66096921424592,0.20000000298023224
1.9000094723743468,13.846487859801476,0.20000000298023224
1.2806241564502199,13.9545295723532,0.20000000298023224
1.2806241564502199,13.9545295723532,0.20000000298023224
0.8493537963814634,14.029336384735338,0.20000000298023224
0.5141249178129701,14.075363687705186,0.20000000298023224
0.5141249178129701,14.075363687705186,0.20000000298023224
0.2656283686564574,14.098759662627746,0.20000000298023224
0.07607278584975519,14.106209444592597,0.20000000298023224
0.07607278584975519,14.106209444592597,0.20000000298023224
-0.06436418030394503,14.100812974161236,0.20000000298023224
-0.15447885057335803,14.087669972328547,0.20000000298023224
-0.15447885057335803,14.087669972328547,0.20000000298023224
-0.2236390101640912,14.070096182858368,0.20000000298023224
-0.2722835761455584,14.04710899590513,0.5
-0.2507902927960409,14.02782795914083,0.5
-0.2507902927960409,14.02782795914083,0.5
-0.006768768853192145,14.027341038298387,0.5
0.3610374136288837,14.0553794582093,0.5
0.7685259370598169,14.124864834198016,0.5
0.7685259370598169,14.124864834198016,0.5
1.0694318977687094,14.210704412620935,0.5
1.293448404230001,14.324968634674212,0.5
1.445471929397762,14.431061758097831,0.5
1.5652927360045847,14.537222017455795,0.5
1.6450245917790103,14.674294809469577,0.5
1.6450245917790103,14.674294809469577,0.5
1.7258567273635927,14.822937042866876,0.5
1.7819167089815848,14.950593710988196,0.5
1.7819167089815848,14.950593710988196,0.5
1.8061257099705887,15.088497070429225,0.5
1.8423828447405537,15.240821489142723,0.5
1.8423828447405537,15.240821489142723,0.5
1.8631789632154145,15.41837554791954,0.5
1.872876824069023,15.578193779424339,0.699999988079071
1.940215395756261,15.726881746262276,0.699999988079071
1.940215395756261,15.726881746262276,0.699999988079071
2.194115465233341,15.890175071106126,0.699999988079071
2.4942901204384316,16.069107625090904,0.699999988079071
2.7108630838077667,16.256990817164507,0.699999988079071
2.887397024279822,16.45670276598964,0.699999988079071
2.887397024279822,16.45670276598964,0.699999988079071
3.056012724356404,16.77497632450253,0.699999988079071
3.1887738184726855,17.036640058814424,0.699999988079071
3.1887738184726855,17.036640058814424,0.699999988079071
3.2830156662425347,17.32036346584812,0.699999988079071
3.2830156662425347,17.32036346584812,0.699999988079071
3.353775972136711,17.647664951028656,0.699999988079071
3.403049648866683,17.95943588207278,0.699999988079071
3.403049648866683,17.95943588207278,0.699999988079071
3.4265994297364957,18.23918162024269,0.699999988079071
3.494826575015253,18.579972535614104,0.699999988079071
3.410165361210831,18.86394463372368,0.699999988079071
3.410165361210831,18.86394463372368,0.699999988079071
3.481181299139927,19.180141316223487,0.800000011920929
3.481181299139927,19.180141316223487,0.800000011920929
1.856038608795584,19.34751604386008,0.800000011920929
1.856038608795584,19.34751604386008,0.800000011920929
-0.4615880954298418,19.314761104693023,0.800000011920929
3.841714366407926,19.632726953322404,0.800000011920929
3.841714366407926,19.632726953322404,0.800000011920929
1.2284832140476478,19.744956435014757,0.800000011920929
4.206619291146095,20.080713998174076,0.800000011920929
2.017856692446453,20.264660951971095,0.800000011920929
2.017856692446453,20.264660951971095,0.800000011920929
5.849529115033565,20.705343508221535,0.800000011920929
2.3024595119265814,20.923532790063906,0.800000011920929
2.3024595119265814,20.923532790063906,0.800000011920929
3.31371172691392,21.235272485794056,0.800000011920929
6.037777469321863,21.688413183584437,0.800000011920929
6.037777469321863,21.688413183584437,0.800000011920929
4.2803141331130385,22.08779224348002,0.800000011920929
3.900726175117431,22.427456105424124,0.800000011920929
3.900726175117431,22.427456105424124,0.800000011920929
2.4791853375119586,22.676199816046548,0.8999999761581421
2.4791853375119586,22.676199816046548,0.8999999761581421
5.56690095377384,23.154970156097313,0.8999999761581421
5.615282112795239,23.604625931618482,0.8999999761581421
6.15428642228354,24.07178356467513,0.8999999761581421
6.343043482707574,24.56383050165307,0.8999999761581421
6.343043482707574,24.56383050165307,0.8999999761581421
5.329253894142539,25.05081568201959,0.8999999761581421
5.329253894142539,25.05081568201959,0.8999999761581421
5.750391877947315,25.54425943847567,0.8999999761581421
6.1411745253785455,26.00771019590115,0.8999999761581421
6.050963048042931,26.505727703179158,0.8999999761581421
6.050963048042931,26.505727703179158,0.8999999761581421
5.281423751518297,26.991735868521754,0.8999999761581421
5.525817195314579,27.464658564271094,0.8999999761581421
4.8660077412920035,27.806766441931707,0.8999999761581421
4.8660077412920035,27.806766441931707,0.8999999761581421
5.341942637075444,28.275796682952468,0.8999999761581421
5.082831363045566,28.76329461954423,0.8999999761581421
5.082831363045566,28.76329461954423,0.8999999761581421
4.62249743346946,29.222313175559684,0.8999999761581421
4.62249743346946,29.222313175559684,0.8999999761581421
5.2983313134160595,29.696097780214753,0.8999999761581421
6.024097550000854,30.177781595991675,0.8999999761581421
6.024097550000854,30.177781595991675,0.8999999761581421
6.00219073259718,30.708049460310214,0.8999999761581421
5.712770172632741,31.273488115980808,0.8999999761581421
5.699246740343005,31.724121794455357,0.8999999761581421
5.699246740343005,31.724121794455357,0.8999999761581421
5.661719694056008,32.185290984931214,0.8999999761581421
5.557088470563209,32.616926880536354,0.8999999761581421
5.460574227264145,33.08787118117122,0.8999999761581421
5.460574227264145,33.08787118117122,0.8999999761581421
5.37309403763421,33.47573501852172,0.8999999761581421
5.311483588324277,34.02957933729108,0.8999999761581421
5.311483588324277,34.02957933729108,0.8999999761581421
5.2463906275506815,34.57825368931116,0.8999999761581421
5.2463906275506815,34.57825368931116,0.8999999761581421
5.169731813918316,35.348272636488836,0.8999999761581421
5.169731813918316,35.348272636488836,0.8999999761581421
5.139042108736134,35.80047745544757,-1.0
4.857055590660968,36.237699053877854,-1.0
4.857055590660968,36.237699053877854,-1.0
3.7803714634843852,36.60650744372162,-1.0
2.2755193860780447,36.790442180097585,-1.0
0.6955754393804445,36.839563581658645,-1.0
-0.875902918137342,36.77491034171585,-1.0
-0.875902918137342,36.77491034171585,-1.0
-2.225024971097728,36.60867820502413,-1.0
-3.4359025502971523,36.34019502661099,-1.0
-4.460374801782023,35.99286743006786,-1.0
-4.460374801782023,35.99286743006786,-1.0
-5.117473219394872,35.490919332446424,-1.0
-5.5992187874731565,35.0854565461259,-1.0
-5.5992187874731565,35.0854565461259,-1.0
-5.94192162405145,34.5200466540821,-1.0
-6.242025119435868,34.003598628561306,-1.0
-6.433311836154884,33.49351193389779,-1.0
-6.433311836154884,33.49351193389779,-1.0
-6.5802422113951335,33.01919189899494,-1.0
-6.689667494109692,32.398412218803706,-0.6000000238418579
-6.689667494109692,32.398412218803706,-0.6000000238418579
-6.485230388775886,31.79790330861425,-0.6000000238418579
-5.812905478970265,31.307953452455315,-0.6000000238418579
-5.76819570345309,30.883626505071376,-0.6000000238418579
-5.76819570345309,30.883626505071376,-0.6000000238418579
-5.783010834179156,30.00941465387032,-0.6000000238418579
-5.783010834179156,30.00941465387032,-0.6000000238418579
-5.533279665670587,29.473356734237605,-0.6000000238418579
-5.72408218400073,29.011151994220736,-0.6000000238418579
-5.72408218400073,29.011151994220736,-0.6000000238418579
-4.926500436192228,28.557664336271294,-0.6000000238418579
-5.837078479508161,28.027469357672107,-0.6000000238418579
-5.837078479508161,28.027469357672107,-0.6000000238418579
-4.556545784568566,27.607945753148645,-0.6000000238418579
-4.556545784568566,27.607945753148645,-0.6000000238418579
-5.989376830592773,27.07386259969575,-0.6000000238418579
-4.698804183676733,26.724153692304135,-0.6000000238418579
-4.698804183676733,26.724153692304135,-0.6000000238418579
-5.8461333375293885,26.15284578298015,-0.6000000238418579
-4.406161371196268,25.776407436697784,-0.6000000238418579
-5.948292491757699,25.315665050729702,-0.6000000238418579
-5.948292491757699,25.315665050729702,-0.6000000238418579
-4.522078783083495,24.940508688877845,-0.6000000238418579
-5.859556682216933,24.454546334898787,-0.6000000238418579
-5.859556682216933,24.454546334898787,-0.6000000238418579
-4.343096080809631,24.07262179809902,-0.6000000238418579
-5.864074750064633,23.571328506926324,-0.6000000238418579
-5.864074750064633,23.571328506926324,-0.6000000238418579
-4.190321784370179,23.18008755601436,-0.6000000238418579
-5.898702419177891,22.71028160812698,-0.6000000238418579
-5.898702419177891,22.71028160812698,-0.6000000238418579
-4.248951931987272,22.346656082840248,-0.6000000238418579
-4.248951931987272,22.346656082840248,-0.6000000238418579
-5.704542369884332,21.78314801376561,-0.6000000238418579
-3.8722599054485656,21.417392785440608,-0.6000000238418579
-5.81909640857187,20.935665591202326,-0.6000000238418579
-5.81909640857187,20.935665591202326,-0.6000000238418579
-3.85739560974404,20.5560102070582,-0.6000000238418579
-3.85739560974404,20.5560102070582,-0.6000000238418579
-5.798381353244861,20.052163031144175,-0.10000000149011612
-3.6462133020029404,19.717813091506923,-0.10000000149011612
-4.933793943572225,19.335366296097124,-0.10000000149011612
-4.933793943572225,19.335366296097124,-0.10000000149011612
-3.012208212497145,19.03596335311527,-0.10000000149011612
-3.012208212497145,19.03596335311527,-0.10000000149011612
-4.609311138651104,18.614725974833743,-0.10000000149011612
-2.4079450701610976,18.42073322964366,-0.10000000149011612
-4.077248566901366,18.106947127645732,-0.10000000149011612
-4.077248566901366,18.106947127645732,-0.10000000149011612
-2.6576650845088716,17.87635362088888,-0.10000000149011612
-2.5877365210669794,17.651958766481272,-0.10000000149011612
-2.5877365210669794,17.651958766481272,-0.10000000149011612
-2.6091470074192085,17.41239983973947,-0.10000000149011612
-2.6378311604039,17.179390339437724,-0.10000000149011612
-2.6378311604039,17.179390339437724,-0.10000000149011612
-2.6490530806830765,16.929604895140667,-0.10000000149011612
-2.6490530806830765,16.929604895140667,-0.10000000149011612
-2.6535898339576987,16.69040329822239,-0.10000000149011612
-2.6472109234838697,16.45289584367957,-0.10000000149011612
-2.6472109234838697,16.45289584367957,-0.699999988079071
-2.937986641286305,16.18339435073319,-0.699999988079071
-3.3776840153527763,15.92537930486134,-0.699999988079071
-3.3776840153527763,15.92537930486134,-0.699999988079071
-3.845067457774963,15.52952427307881,-0.699999988079071
-4.309648450638336,15.173505901498618,-0.699999988079071
-4.309648450638336,15.173505901498618,-0.699999988079071
-4.477614943963605,14.741295021178034,-0.699999988079071
-4.442039432541613,14.37110846787682,-0.699999988079071
-4.442039432541613,14.37110846787682,-0.699999988079071
-4.402109212341122,14.032861111170694,-0.699999988079071
-4.362521080814762,13.675906825974522,-0.699999988079071
-4.322917003165651,13.299458591672355,-0.699999988079071
-4.322917003165651,13.299458591672355,-0.699999988079071
-4.281052935279338,12.912665310683504,-0.699999988079071
-4.239211805693063,12.534764787257089,-0.699999988079071
-4.239211805693063,12.534764787257089,-0.699999988079071
-4.19899388588162,12.189566436224892,-0.699999988079071
-4.162228855243548,11.887608788895587,-0.699999988079071
-4.162228855243548,11.887608788895587,-0.699999988079071
-4.1164974382005575,11.48971202111387,-0.8999999761581421
-4.402120929947006,11.0793619779114,-0.8999999761581421
-4.402120929947006,11.0793619779114,-0.8999999761581421
-4.587126168179444,10.679345458276503,-0.8999999761581421
-4.7185809621337755,10.294034227725739,-0.8999999761581421
-4.387283285196941,9.946334939608587,-0.8999999761581421
-4.387283285196941,9.946334939608587,-0.8999999761581421
-4.681785280378479,9.592973295196225,-0.8999999761581421
-4.275468278164017,9.21187980795327,-0.8999999761581421
-4.676053237816099,8.842430573194513,-0.8999999761581421
-4.676053237816099,8.842430573194513,-0.8999999761581421
-4.1944449955172365,8.417633917588086,-0.8999999761581421
-4.1944449955172365,8.417633917588086,-0.8999999761581421
-4.702028538925582,7.985365572020966,-0.8999999761581421
-4.091961997138245,7.622747939910125,-0.8999999761581421
-4.091961997138245,7.622747939910125,-0.8999999761581421
-4.593494410486708,7.244696068802214,-0.8999999761581421
-4.009388551669267,6.873652203103018,-0.8999999761581421
-14.581189781372998,5.83134227121061,-0.8999999761581421
-14.581189781372998,5.83134227121061,-0.8999999761581421
-27.332385635980366,3.329651923427246,0
-27.332385635980366,3.329651923427246,0
-26.552734128274583,0.8236916815254003,0
-9.2216728750125,0.0014359854060495508,0
-0.02571160945930564,-0.0006779142098818924,0
-0.02571160945930564,-0.0006779142098818924,0
0.016394069356849224,0.0007446470445600333,0
2.0479673261881923,0.18872005908802286,0
2.0479673261881923,0.18872005908802286,0
1.1984040791190316,0.3006539387542294,0
0.8766628933200038,0.3805721896021759,0
0.8766628933200038,0.3805721896021759,0
0.4059955974774561,0.4172232076642296,0
0.25773867953590845,0.4361830742654901,0
0.043536753925014327,0.43959870637503956,0
0.043536753925014327,0.43959870637503956,0
-0.05427682123238126,0.43547090220293383,0
-0.18543780240377641,0.42076129666139006,0
-0.2333847389221638,0.40341130607384934,0
-0.2552381568676936,0.3855181002438644,0
-0.2552381568676936,0.3855181002438644,-0.6000000238418579
-5.035868018199525,-0.00012397490983564509,-0.6000000238418579
-0.0019097827070169865,-0.0002598166963397819,-0.6000000238418579
-0.010340732477858203,-0.0010502244362192606,-0.6000000238418579
0.009154298457812187,-0.00040505850987233296,-0.6000000238418579
0.009154298457812187,-0.00040505850987233296,-0.6000000238418579
-0.007163329140058907,-0.0009982484767223447,-0.6000000238418579
-0.0014265916852988488,-0.0011031243969185176,-0.6000000238418579
0.0021597008696763622,-0.0009359881848996981,-0.6000000238418579
0.002870318980395789,-0.0006822278141046774,-0.6000000238418579
0.002870318980395789,-0.0006822278141046774,-0.6000000238418579
0.001697728705782507,-0.0005194722459203188,-0.6000000238418579
0.001697728705782507,-0.0005194722459203188,-0.6000000238418579
-0.0014777644026528777,-0.0006536235880916896,-0.6000000238418579
0.00015495288342257715,-0.0006394883431750743,-0.6000000238418579
-0.0041050169252255355,-0.0009449892575973082,-0.6000000238418579
-0.0041050169252255355,-0.0009449892575973082,-0.6000000238418579
0.005216613807511206,-0.00044166743896144106,-0.6000000238418579
-0.004590490093551041,-0.0008073755878808188,-0.6000000238418579
-0.004590490093551041,-0.0008073755878808188,-0.6000000238418579
4.629326155523549e-05,-0.0008038194152185455,-0.8999999761581421
0.004169010430996692,-0.0004089647989725588,-0.8999999761581421
0.004169010430996692,-0.0004089647989725588,-0.8999999761581421
-0.0037652686302163613,-0.0007135832360689988,-0.8999999761581421
0.0022932040174219776,-0.0005093616042999666,-0.8999999761581421
0.0022932040174219776,-0.0005093616042999666,-0.8999999761581421
0.005881882824221598,-0.0,-0.8999999761581421
-0.0,-0.0,-0.8999999761581421
-0.0,-0.0,0.10000000149011612
-0.0009245033537362144,-7.286492864741823e-05,0.30000001192092896
0.0004978492676788154,-2.578537818995462e-05,0.4000000059604645
0.0004978492676788154,-2.578537818995462e-05,0.4000000059604645
-0.0019510214046723092,-0.00021604598189270058,0.4000000059604645
-0.0019510214046723092,-0.00021604598189270058,0.4000000059604645
2.5508277261250667,0.2473114386980729,0.4000000059604645
-3.854939976992356,-0.09628356905980655,0.4000000059604645
-3.854939976992356,-0.09628356905980655,0.4000000059604645
2.892494271123461,0.13224316499678715,0.4000000059604645
-2.8572681839864416,-0.1261940724808918,0.4000000059604645
-2.8572681839864416,-0.1261940724808918,0.4000000059604645
3.961019956295713,0.2308536226403969,0.4000000059604645
1.1635288639260428,0.328407940108052,0.4000000059604645
1.1635288639260428,0.328407940108052,0.4000000059604645
1.0455696977121385,0.4035761236312883,0.4000000059604645
3.0849960758213557,0.6295974369535315,0.4000000059604645
2.043242078472378,0.7978558798336013,0.4000000059604645
2.043242078472378,0.7978558798336013,0.4000000059604645
0.16361861055430418,0.8111999513910756,0.4000000059604645
2.0776174789080515,1.001984906200636,0.4000000059604645
2.0776174789080515,1.001984906200636,0.4000000059604645
2.3579776794378198,1.2064070794869892,0.800000011920929
0.654937963382257,1.262509647202374,0.800000011920929
0.654937963382257,1.262509647202374,0.800000011920929
2.454031471224293,1.4804231906679355,0.800000011920929
2.723033716190084,1.713409233725242,0.800000011920929
4.111674969751677,2.109071619634347,0.800000011920929
4.111674969751677,2.109071619634347,0.800000011920929
3.1916763479066868,2.406134001962504,0.800000011920929
3.1916763479066868,2.406134001962504,0.800000011920929
4.594413329041608,2.841890519641486,0.800000011920929
3.6384750326128543,3.1779864405271216,0.800000011920929
4.693315645811102,3.5672602148208212,0.800000011920929
4.693315645811102,3.5672602148208212,0.800000011920929
5.337857924280224,4.020634727280625,0.800000011920929
4.648571982292045,4.4592309652053,0.800000011920929
4.258941145491095,4.852491201895671,0.800000011920929
4.258941145491095,4.852491201895671,0.800000011920929
4.808242778554261,5.270272579639114,0.800000011920929
6.234327227921171,5.73891748746817,0.800000011920929
5.24996699358851,6.135098105520033,0.800000011920929
5.24996699358851,6.135098105520033,0.10000000149011612
5.6399137460380295,6.579037864159883,0.10000000149011612
4.343879035042795,6.91921835404225,0.10000000149011612
4.313073665454155,7.255684746455322,0.10000000149011612
2.1330436408217546,7.408979932688826,0.10000000149011612
2.1330436408217546,7.408979932688826,0.10000000149011612
1.925385265501615,7.558878999223224,0.10000000149011612
0.7267176775675555,7.607020972599236,0.10000000149011612
0.7037071376702928,7.655387606286127,0.10000000149011612
0.7037071376702928,7.655387606286127,0.10000000149011612
0.5074203714949027,7.902392057624364,0.10000000149011612
0.5074203714949027,7.902392057624364,0.10000000149011612
0.06587223864696702,7.909653028397321,0.10000000149011612
0.1095592987250914,7.917002786107312,0.10000000149011612
-1.8790779980203394,7.7523057023287665,0.10000000149011612
-1.8790779980203394,7.7523057023287665,0.10000000149011612
1.2513260532216215,7.850045770871566,0.10000000149011612
-1.7276486837203282,7.70351636114045,0.10000000149011612
-1.7276486837203282,7.70351636114045,0.10000000149011612
0.9342918690633122,7.7869137958391175,0.10000000149011612
-2.3255840686894076,7.563504820647756,0.20000000298023224
-0.8605203432591338,7.5055043793422165,0.20000000298023224
-0.8605203432591338,7.5055043793422165,0.20000000298023224
1.2704054508889817,7.632789764198076,0.20000000298023224
-1.8523044319093782,7.478799039301869,0.20000000298023224
-1.8523044319093782,7.478799039301869,0.20000000298023224
1.2912584537404805,7.5940447462782545,0.20000000298023224
-1.4420315768497394,7.482667346904071,0.20000000298023224
1.3585036374788195,7.580565237005099,0.20000000298023224
1.3585036374788195,7.580565237005099,0.20000000298023224
-1.417613666591523,7.452972380193803,0.20000000298023224
1.6661966259771064,7.5854643973537765,0.20000000298023224
1.6661966259771064,7.5854643973537765,0.20000000298023224
-1.5769386522051594,7.4391335382324675,0.20000000298023224
-0.4058247077979403,7.412000686884929,0.20000000298023224
1.8100047141551683,7.575643605486828,0.20000000298023224
1.8100047141551683,7.575643605486828,0.20000000298023224
-1.5351812123914053,7.440297374820544,0.20000000298023224
-1.5351812123914053,7.440297374820544,0.20000000298023224
0.2798400674399161,7.470719119609822,0.20000000298023224
1.42332069335995,7.599311097144426,0.8999999761581421
1.42332069335995,7.599311097144426,0.8999999761581421
-1.5623007121907169,7.453547054061385,0.8999999761581421
2.1956208907668535,7.633409803037561,0.8999999761581421
2.1956208907668535,7.633409803037561,0.8999999761581421
-0.4290873769454637,7.593656905079931,0.8999999761581421
3.2765340958678504,7.8477709909102416,0.8999999761581421
1.9290598861676103,8.00375335173412,0.8999999761581421
1.9290598861676103,8.00375335173412,0.8999999761581421
2.3849744060638542,8.234781579104423,0.8999999761581421
3.754873792413955,8.549060753794768,0.8999999761581421
3.754873792413955,8.549060753794768,0.8999999761581421
4.253754351789805,8.930006282286014,0.8999999761581421
5.222724395164749,9.317651369934453,0.8999999761581421
5.222724395164749,9.317651369934453,0.8999999761581421
4.896355612005733,9.666181781885834,0.8999999761581421
5.607729869589826,10.073925123439135,0.8999999761581421
5.4058393953984964,10.48431954760086,0.8999999761581421
5.441573709695189,10.862840843939486,0.8999999761581421
5.4427807496195415,11.259684456562349,0.8999999761581421
5.4427807496195415,11.259684456562349,0
5.361865132611449,11.675573326688225,0
4.890216271039805,12.073681052706199,0
4.890216271039805,12.073681052706199,0
4.033260851477031,12.419964126841387,0
2.9344320686287744,12.648563952725743,0
1.7622680337401089,12.794008342411633,0
1.7622680337401089,12.794008342411633,0
0.884670616930889,12.859048319712208,0
0.12831835400000824,12.872787471675368,0
0.12831835400000824,12.872787471675368,0
-0.4901258995346709,12.827645787365736,0
-0.4901258995346709,12.827645787365736,0
-0.8633337737206154,12.754113745715152,0
-1.1395814028717517,12.64995008384828,0
-1.1395814028717517,12.64995008384828,0
-1.3414226468642507,12.529749880946715,0
-1.489894079962892,12.394116364904818,0
-1.5894472216263498,12.27522706271132,0
-1.5894472216263498,12.27522706271132,0
-1.6488296994358846,12.12781597479988,0.699999988079071
-1.6578678756200331,11.98545781916408,0.699999988079071
-1.6578678756200331,11.98545781916408,0.699999988079071
-1.33774885899204,11.864908247846325,0.699999988079071
-1.33774885899204,11.864908247846325,0.699999988079071
-0.8766876763523783,11.781566574344772,0.699999988079071
-0.09566726089659225,11.7729502108901,0.699999988079071
0.29610911820911223,11.793804196986066,0.699999988079071
1.400420056068338,11.900957596876257,0.699999988079071
1.400420056068338,11.900957596876257,0.699999988079071
1.9861788390907258,12.066068925383442,0.699999988079071
2.3926837551519733,12.281563026101164,0.699999988079071
2.3926837551519733,12.281563026101164,0.699999988079071
2.7460857448553684,12.529272981941144,0.699999988079071
2.985889060073692,12.806532487356483,0.699999988079071
2.985889060073692,12.806532487356483,0.699999988079071
3.1660359173079318,13.075752713546725,0.699999988079071
3.1660359173079318,13.075752713546725,0.699999988079071
3.3037068148344275,13.411302532255359,0.699999988079071
3.3960864703807925,13.717165813237065,0.699999988079071
3.4590124036931464,13.988015940824985,0.30000001192092896
3.4590124036931464,13.988015940824985,0.30000001192092896
3.399141496287803,14.232289101742587,0.30000001192092896
2.9938971078426597,14.459760211363296,0.30000001192092896
2.4195448690383796,14.64432772900244,0.30000001192092896
2.4195448690383796,14.64432772900244,0.30000001192092896
1.8649733512971978,14.829329203915476,0.30000001192092896
1.8649733512971978,14.829329203915476,0.30000001192092896
1.4016889707581865,14.962866089147406,0.30000001192092896
1.0662566721453002,15.071250943138933,0.30000001192092896
1.0662566721453002,15.071250943138933,0.30000001192092896
0.8267202978833432,15.142039321881285,0.30000001192092896
0.6712547898260165,15.198432476635249,0.30000001192092896
0.6712547898260165,15.198432476635249,0.30000001192092896
0.5463594993333464,15.248834131500379,0.30000001192092896
0.5463594993333464,15.248834131500379,0.30000001192092896
0.4442584869346752,15.291550851791252,0.30000001192092896
0.370203383932503,15.321477566252128,0.30000001192092896
0.3269810873113267,15.345032330163011,0.30000001192092896
0.29346655115705894,15.366250950919722,0.30000001192092896
0.29346655115705894,15.366250950919722,0.699999988079071
0.36491783314859527,15.40235455301491,0.699999988079071
0.7077044693473079,15.46347184192913,0.699999988079071
0.7077044693473079,15.46347184192913,0.699999988079071
1.2072002087486022,15.554275538844996,0.699999988079071
1.6962243083684203,15.679913050792598,0.699999988079071
1.6962243083684203,15.679913050792598,0.699999988079071
2.451071299501192,16.063849544822595,0.699999988079071
2.451071299501192,16.063849544822595,0.699999988079071
2.7112473652480307,16.32060347772692,0.699999988079071
2.7112473652480307,16.32060347772692,0.699999988079071
2.9160014511054944,16.593001481681405,0.699999988079071
3.0603740526183514,16.85205368307012,0.699999988079071
3.1590526412546387,17.091184845362474,0.699999988079071
3.232592063754341,17.350402434625668,0.699999988079071
3.232592063754341,17.350402434625668,0.699999988079071
3.288388543502041,17.63166341711634,0.699999988079071
3.3354455020540783,17.991199311387305,0.699999988079071
3.3354455020540783,17.991199311387305,0.699999988079071
3.3786893414908974,18.263009567590373,0.699999988079071
3.3433964265477254,18.546603867094937,0.10000000149011612
3.3433964265477254,18.546603867094937,0.10000000149011612
3.3112618071565154,18.865150700504785,0.10000000149011612
3.3112618071565154,18.865150700504785,0.10000000149011612
2.0717071273991814,19.05007571930501,0.10000000149011612
-1.7097506750082445,18.8965483131001,0.10000000149011612
0.3897402666435828,18.92721681968269,0.10000000149011612
0.3897402666435828,18.92721681968269,0.10000000149011612
-1.3586034728128507,18.82351570249779,0.10000000149011612
-0.749845056418857,18.760550918479673,0.10000000149011612
-2.203304452288765,18.569747680644888,0.10000000149011612
-2.203304452288765,18.569747680644888,0.10000000149011612
-0.8531417365394725,18.49709090173154,0.10000000149011612
-2.0699232540430197,18.334606060623983,0.10000000149011612
-2.0699232540430197,18.334606060623983,0.10000000149011612
-1.0770998831514456,18.244974227780133,0.10000000149011612
-2.8120861432290596,17.978172409538228,0.10000000149011612
-2.8120861432290596,17.978172409538228,0.10000000149011612
0.07642429257287588,17.984345059756887,0.10000000149011612
-0.4225061882219591,17.95282657817045,0.10000000149011612
-0.30385333624370325,17.928359791567715,-1.0
-0.30385333624370325,17.928359791567715,-1.0
-1.143850315381467,17.82522899360957,-1.0
-2.008278525761707,17.65887602781009,-1.0
-2.008278525761707,17.65887602781009,-1.0
-2.746846101474552,17.421981973171338,-1.0
-3.4472017174392855,17.10158461166152,-1.0
-3.4472017174392855,17.10158461166152,-1.0
-4.060974935365242,16.764742132865685,-1.0
-4.575926506829813,16.40955158814493,-1.0
-4.575926506829813,16.40955158814493,-1.0
-5.098326195309916,15.928363960981253,-1.0
-5.320684961048827,15.42475718088249,-1.0
-5.320684961048827,15.42475718088249,-1.0
-5.333667438911844,14.96909652879189,-1.0
-5.32666750675402,14.463369318958161,-1.0
-5.32666750675402,14.463369318958161,-1.0
-5.311678207885114,13.963909526859263,-1.0
-5.311678207885114,13.963909526859263,-1.0
-5.282354486272639,13.438487380545686,-1.0
-5.282354486272639,13.438487380545686,0
-4.682248254507401,12.956954764812238,0
-3.825963188284182,12.659248534464034,0
-3.825963188284182,12.659248534464034,0
-3.008678005352178,12.385177373407414,0
-2.143126631884307,12.196220924273485,0
-1.8032751303546737,12.059596673462277,0
-1.8032751303546737,12.059596673462277,0
-1.8071128066802027,11.898884999492585,0
-1.8110016515536267,11.756046645897358,0
-1.8110016515536267,11.756046645897358,0
-1.8013664415741595,11.601594274252802,0
-1.7951791449708099,11.455622516042475,0
-1.7951791449708099,11.455622516042475,0
-1.7846604266090127,11.3196549642428,0
-1.7728528037244058,11.188578468353105,0
-1.760338731411974,11.055933843884414,0
-1.760338731411974,11.055933843884414,0
-1.7448075248735064,10.897055751318508,0
-1.7341477915429473,10.751314461735438,0
-1.7341477915429473,10.751314461735438,-0.10000000149011612
-2.055783163514161,10.572434410687423,-0.10000000149011612
-2.052053933266428,10.39613349998061,-0.10000000149011612
-1.990399568809233,10.245559396464227,-0.10000000149011612
-1.990399568809233,10.245559396464227,-0.10000000149011612
-2.199040798838174,10.054185185010095,-0.10000000149011612
-1.8752477418041813,9.905745258942176,-0.10000000149011612
-2.187241713046279,9.714722724293727,-0.10000000149011612
-2.187241713046279,9.714722724293727,-0.10000000149011612
-1.8234618648854368,9.56887428200571,-0.10000000149011612
-1.9823176320200768,9.347917729150351,-0.10000000149011612
-1.9823176320200768,9.347917729150351,-0.10000000149011612
-2.2132724379928947,9.146149963178091,-0.10000000149011612
-1.9000337080408847,8.96799289398345,-0.10000000149011612
-1.9000337080408847,8.96799289398345,-0.10000000149011612
-2.1865365723637145,8.765743531259492,-0.10000000149011612
-2.1865365723637145,8.765743531259492,-0.10000000149011612
-1.691190082744437,8.622482095758297,-0.10000000149011612
-2.145270687245699,8.426427532987821,-0.10000000149011612
-1.6595800345112914,8.286022800360293,-0.10000000149011612
-1.6595800345112914,8.286022800360293,-0.20000000298023224
-2.25866135253917,8.093844569972788,-0.20000000298023224
-2.1910595614429367,7.8788848994227045,-0.20000000298023224
-2.1910595614429367,7.8788848994227045,-0.20000000298023224
-2.359856329228941,7.671929711982441,-0.20000000298023224
-2.448374662209841,7.500926667998077,-0.20000000298023224
-2.448374662209841,7.500926667998077,-0.20000000298023224
-1.9127340744087222,7.329662238350865,-0.20000000298023224
-2.2861736476386594,7.13177383696988,-0.20000000298023224
-2.2861736476386594,7.13177383696988,-0.20000000298023224
-1.9245009725722235,6.96244060645008,-0.20000000298023224
-2.2318635053461864,6.775756400535879,-0.20000000298023224
-2.2318635053461864,6.775756400535879,-0.20000000298023224
-2.0278761985338654,6.585713725990526,-0.20000000298023224
-2.180751996605231,6.407342927697189,-0.20000000298023224
-2.180751996605231,6.407342927697189,-0.20000000298023224
-2.0749886570028746,6.203126826781047,-0.20000000298023224
-2.0204586355399257,6.050949760820996,-0.20000000298023224
-2.0204586355399257,6.050949760820996,-0.20000000298023224
-2.027010815720357,5.857622086481292,-0.20000000298023224
-2.146455719059873,5.68257146930516,-0.4000000059604645
-2.146455719059873,5.68257146930516,-0.4000000059604645
-1.9673425436391843,5.521461293595318,-0.4000000059604645
-2.74110182877001,5.291650217221259,-0.4000000059604645
-2.74110182877001,5.291650217221259,-0.4000000059604645
-2.249291884882634,5.1173959788423495,-0.4000000059604645
-2.6589222993338675,4.9213948428965715,-0.4000000059604645
-2.6589222993338675,4.9213948428965715,-0.4000000059604645
-19.090242025795554,3.0146341343594165,-0.4000000059604645
-23.86476476918331,0.7115265268852549,-0.4000000059604645
-8.121119641627478,0.000577653547219739,-0.4000000059604645
-0.008247637667438423,3.377797374602835e-05,-0.4000000059604645
-0.008247637667438423,3.377797374602835e-05,-0.4000000059604645
-0.010317491315293817,-0.0008697028873327128,-0.4000000059604645
-0.006222192197250508,-0.0013473854631954117,-0.4000000059604645
-0.006222192197250508,-0.0013473854631954117,-0.4000000059604645
0.0011925501982339194,-0.0012451982378811706,-0.4000000059604645
2.1041047481128418e-05,-0.0012433774610556116,-0.4000000059604645
2.1041047481128418e-05,-0.0012433774610556116,-0.4000000059604645
-8.497721946896783e-05,-0.0012506971890285567,-0.4000000059604645
-0.002813073420978779,-0.0014574493108625538,-0.5
0.00250510286695464,-0.0012634794670006411,-0.5
0.00250510286695464,-0.0012634794670006411,-0.5
0.009985652458154104,-0.0005503349302680925,-0.5
-0.002995963177785665,-0.0008444526548702242,-0.5
-0.002995963177785665,-0.0008444526548702242,-0.5
-0.0008819343105835199,-0.0009274704697960451,-0.5
-0.0021287243459011916,-0.001105326431477095,-0.5
-0.0021287243459011916,-0.001105326431477095,-0.5
0.0030116804800943133,-0.0008265888558828512,-0.5
-0.004803452162338664,-0.0011770679797000975,-0.5
0.010599541771268716,-0.0004584642546819779,-0.5
0.010599541771268716,-0.0004584642546819779,-0.5
-0.005967498129992803,-0.000944624818679617,-0.5
0.010035070181710565,-0.0,-0.5
0.010035070181710565,-0.0,-0.5
-0.0,-0.0,0
-0.0,-0.0,0.10000000149011612
-0.0024026811188809813,-0.00017885917534557822,0.800000011920929
-0.0024026811188809813,-0.00017885917534557822,0.699999988079071
-2.529809995546462,-0.19285902683444395,0.699999988079071
2.64305116125086,0.030867072969657263,0.699999988079071
-0.24216491529960327,0.013877486222631,0.699999988079071
-0.24216491529960327,0.013877486222631,0.699999988079071
-3.577473217866982,-0.33812517737520437,0.699999988079071
-3.577473217866982,-0.33812517737520437,0.699999988079071
3.532499376287065,-0.0171979999929424,0.699999988079071
1.709874528955896,0.13821439260729285,0.699999988079071
1.709874528955896,0.13821439260729285,0.699999988079071
2.550743349409394,0.3866108746729998,0.699999988079071
3.1222111626042115,0.6712486692691049,0.699999988079071
3.1222111626042115,0.6712486692691049,0.699999988079071
1.803371340515796,0.8001836706945461,0.699999988079071
6.964455990471998,1.281704264227103,0.699999988079071
2.4422720035308347,1.49106206430989,0.699999988079071
3.5478161122652603,1.7648982064033167,0.699999988079071
3.5478161122652603,1.7648982064033167,0.699999988079071
4.766190988712924,2.1494811969634453,0.699999988079071
3.2990661029624317,2.4543514564718008,0.699999988079071
3.8369852466555674,2.7637484823124274,0.30000001192092896
3.8369852466555674,2.7637484823124274,0.30000001192092896
3.626441128501365,3.0830159162676627,0.30000001192092896
4.054123340034757,3.4580526787303008,0.30000001192092896
4.054123340034757,3.4580526787303008,0.30000001192092896
1.1305272863672082,3.5612795775187207,0.30000001192092896
5.28435189147931,3.9607880090400225,0.30000001192092896
5.28435189147931,3.9607880090400225,0.30000001192092896
0.017562152947392454,3.9624049314285075,0.30000001192092896
4.053984646412952,4.320180267908042,0.30000001192092896
4.053984646412952,4.320180267908042,0.30000001192092896
-0.6055036935285132,4.26153202528469,0.30000001192092896
4.087890949768095,4.5954349277957975,0.30000001192092896
4.087890949768095,4.5954349277957975,0.30000001192092896
-0.36340450324674267,4.566124681816565,0.30000001192092896
3.2669641753674004,4.844507092361522,0.30000001192092896
3.2669641753674004,4.844507092361522,0.30000001192092896
-0.6632068457876317,4.789385885145281,0.30000001192092896
3.2953887850540657,5.057695132003837,0.30000001192092896
-0.7318097193485497,4.996926521359445,0.30000001192092896
-0.7318097193485497,4.996926521359445,1.0
1.234867849544038,5.136259398295313,1.0
3.8898846086322356,5.420740980897752,1.0
3.8898846086322356,5.420740980897752,1.0
0.015312876009753042,5.422282334382479,1.0
4.829393796944316,5.866686100457807,1.0
4.829393796944316,5.866686100457807,1.0
2.3825766990351287,6.095621362935631,1.0
2.3825766990351287,6.095621362935631,1.0
6.064364445118544,6.681401157145392,1.0
3.9454864428740586,7.025796618232136,1.0
5.856505424263625,7.500625265957585,1.0
5.856505424263625,7.500625265957585,1.0
5.80405425467427,7.9679755460891535,1.0
6.782229229694733,8.503805965036337,1.0
6.782229229694733,8.503805965036337,1.0
5.7062491927812005,9.071854883833872,1.0
5.7062491927812005,9.071854883833872,1.0
6.919913829966177,9.835306513176276,1.0
6.622985676810528,10.421483901177291,1.0
6.622985676810528,10.421483901177291,0.20000000298023224
6.41765160479967,10.996689403191327,0.20000000298023224
5.737396448443566,11.54674804120396,0.20000000298023224
5.737396448443566,11.54674804120396,0.20000000298023224
4.6616398891699795,11.95706384359403,0.20000000298023224
3.5024369603819725,12.237769201394798,0.20000000298023224
3.5024369603819725,12.237769201394798,0.20000000298023224
2.4449599138063123,12.50013988490317,0.20000000298023224
2.4449599138063123,12.50013988490317,0.20000000298023224
1.5738474935700242,12.659011092568731,0.20000000298023224
1.0472016324704128,12.753846168177503,0.20000000298023224
0.628644305608912,12.798720075398164,0.20000000298023224
0.628644305608912,12.798720075398164,0.20000000298023224
0.1783930233024354,12.811414688131295,0.20000000298023224
0.10547417497051494,12.818662188338525,0.20000000298023224
0.10547417497051494,12.818662188338525,0.20000000298023224
-0.0186449696619781,12.816859723093218,0.20000000298023224
0.12824489662269314,12.82667812045657,0.20000000298023224
-0.081561356015027,12.819323669995738,0.20000000298023224
-0.081561356015027,12.819323669995738,0.20000000298023224
-0.17897471748521213,12.801673737926748,0.8999999761581421
-0.17897471748521213,12.801673737926748,0.8999999761581421
-0.19137691074418386,12.78786218843153,0.8999999761581421
0.12984994120975288,12.800859745298204,0.8999999761581421
0.12984994120975288,12.800859745298204,0.8999999761581421
0.5664738321915457,12.849903873165113,0.8999999761581421
1.338434534010683,12.963817642803585,0.8999999761581421
2.0155273581640407,13.113612549042562,0.8999999761581421
2.0155273581640407,13.113612549042562,0.8999999761581421
2.8144040429430364,13.381549872020381,0.8999999761581421
3.4291686019689007,13.643658936012878,0.8999999761581421
3.4291686019689007,13.643658936012878,0.8999999761581421
3.880824571030913,13.973907194945246,0.8999999761581421
4.217178674039297,14.28562872865437,0.8999999761581421
4.462805690137835,14.60964857600791,0.8999999761581421
4.65731129220309,14.941127182539084,0.8999999761581421
4.65731129220309,14.941127182539084,0.8999999761581421
4.803432433787788,15.338529236428439,0.8999999761581421
4.933891131713857,15.701257741334636,0.8999999761581421
5.030029651769042,16.102436509803255,0.8999999761581421
5.030029651769042,16.102436509803255,0.10000000149011612
4.947200488953467,16.594221074046,0.10000000149011612
4.947200488953467,16.594221074046,0.10000000149011612
4.309085503636888,17.006996872836122,0.10000000149011612
3.3214265099971154,17.27924235889217,0.10000000149011612
3.3214265099971154,17.27924235889217,0.10000000149011612
2.1945454419809507,17.470673221834545,0.10000000149011612
1.3096971424344723,17.56153076465035,0.10000000149011612
0.6708155003282216,17.61157027900528,0.10000000149011612
0.6708155003282216,17.61157027900528,0.10000000149011612
0.16653936398918523,17.62372587781852,0.10000000149011612
-0.23560341330069595,17.6062462779447,0.10000000149011612
-0.5501622143755739,17.56618895564642,0.10000000149011612
-0.5501622143755739,17.56618895564642,0.10000000149011612
-0.8195075248485195,17.48984969845295,0.10000000149011612
-1.0404880958685423,17.401288291636995,0.10000000149011612
-1.0404880958685423,17.401288291636995,0.10000000149011612
-1.1980181659610374,17.2836083487409,0.10000000149011612
-1.3196469617196525,17.16475107204516,0.10000000149011612
-1.3196469617196525,17.16475107204516,0.10000000149011612
-1.3954915101151246,17.047672380600375,0.800000011920929
-1.389419322130465,16.94280802424957,0.800000011920929
-1.1775784016754203,16.855599230034997,0.800000011920929
-1.1775784016754203,16.855599230034997,0.800000011920929
-0.7595601959850176,16.793013561430012,0.800000011920929
-0.17421009734027074,16.779215494945678,0.800000011920929
0.5284482319866595,16.821543624770964,0.800000011920929
0.5284482319866595,16.821543624770964,0.800000011920929
1.3301152845893778,16.93342192226029,0.800000011920929
2.062500676752528,17.123694866615885,0.800000011920929
2.062500676752528,17.123694866615885,0.800000011920929
2.652253196223933,17.3833993191685,0.800000011920929
3.0686689892943635,17.637693952853077,0.800000011920929
3.0686689892943635,17.637693952853077,0.800000011920929
3.3731799789210237,17.936714242021583,0.800000011920929
3.601803439993663,18.249072177445058,0.800000011920929
3.800323735300605,18.547098967672433,0.800000011920929
3.800323735300605,18.547098967672433,0.800000011920929
3.8981028417985453,18.88433937061932,0.800000011920929
3.8680167377748167,19.20157884069133,0.800000011920929
3.8680167377748167,19.20157884069133,0.20000000298023224
2.8379073613369554,19.40813181195924,0.20000000298023224
3.2414298717712082,19.657741270425745,0.20000000298023224
0.9155644129365125,19.734902409308084,0.20000000298023224
1.8076087567758274,19.870658066274732,0.20000000298023224
1.8076087567758274,19.870658066274732,0.20000000298023224
0.46489027612792755,19.90799518214146,0.20000000298023224
0.27871261038883216,19.93037002733519,0.20000000298023224
0.5520577096462279,19.970947717131455,0.20000000298023224
0.5520577096462279,19.970947717131455,0.20000000298023224
-0.6602810215055217,19.914781808479262,0.20000000298023224
-1.5205194192819178,19.807501371360512,0.20000000298023224
-1.5205194192819178,19.807501371360512,0.20000000298023224
-1.3032476673537077,19.67838992118374,0.20000000298023224
0.47449485553455684,19.713149258447196,0.20000000298023224
0.47449485553455684,19.713149258447196,0.20000000298023224
-1.0015984493059575,19.630436176500485,0.20000000298023224
-0.7030004693627204,19.574676893330608,0.20000000298023224
-0.6260300429242359,19.527305689220597,0.20000000298023224
-0.5893352294967229,19.4844023590121,0.20000000298023224
-0.5893352294967229,19.4844023590121,0
-0.9155024279672738,19.415617125375412,0
-2.10533629110664,19.26997035047865,0
-1.5948162957493244,19.13380321220893,0
-2.2420259001312135,18.92870758814572,0
-2.2420259001312135,18.92870758814572,0
-2.105774485303929,18.74769746226291,0
-2.0966542773750194,18.576625566141136,0
-2.0966542773750194,18.576625566141136,0
-2.1239366930838535,18.409813411747823,0
-2.2766084704607965,18.228997696446346,0
-2.2268552721402592,18.05950588319524,0
-2.2268552721402592,18.05950588319524,0
-1.8136597675443753,17.90121475208069,0
-1.3935698594656747,17.791918581886875,0
-1.6014018885845993,17.670060609854563,0
-1.6014018885845993,17.670060609854563,0
-1.794087606769081,17.538570675580335,0
-1.9290357361097445,17.40492188284533,0
-2.0511948644127425,17.2464429470458,0
-2.0511948644127425,17.2464429470458,0.20000000298023224
-2.049152736459951,17.06680064023498,0.20000000298023224
-1.8106768844025702,16.897767646408628,0.20000000298023224
-1.8106768844025702,16.897767646408628,0.20000000298023224
-1.5600076521844297,16.77423343108217,0.20000000298023224
-1.3734380948953706,16.661970731400245,0.20000000298023224
-1.3734380948953706,16.661970731400245,0.20000000298023224
-1.2175139933360488,16.545987884240805,0.20000000298023224
-1.1071460203391452,16.4587929288665,0.20000000298023224
-1.0224812934051188,16.381322526320673,0.20000000298023224
-1.0224812934051188,16.381322526320673,0.20000000298023224
-0.9598210632425423,16.309801966902764,0.20000000298023224
-0.9048074324899604,16.229699745806194,0.20000000298023224
-0.9048074324899604,16.229699745806194,0.20000000298023224
-0.8594343111316848,16.147944063476952,0.20000000298023224
-0.8240949706406355,16.072291058817314,0.20000000298023224
-0.8240949706406355,16.072291058817314,0.20000000298023224
-0.7964282569120154,16.00517872888524,0.20000000298023224
-0.7964282569120154,16.00517872888524,0.20000000298023224
-0.7714698823407778,15.934810705208035,0.20000000298023224
-0.7545800397769341,15.867492119142588,-0.6000000238418579
-0.7545800397769341,15.867492119142588,-0.6000000238418579
-1.1413643942691,15.76873178471877,-0.6000000238418579
-1.9408395056813976,15.601058391811197,-0.6000000238418579
-2.6946509805208554,15.35225804209308,-0.6000000238418579
-2.6946509805208554,15.35225804209308,-0.6000000238418579
-3.37433147324669,15.050565102490737,-0.6000000238418579
-3.7177053326161356,14.73618927536528,-0.6000000238418579
-3.7177053326161356,14.73618927536528,-0.6000000238418579
-3.7904757438066072,14.45229055581549,-0.6000000238418579
-3.8358378578680035,14.096063166816212,-0.6000000238418579
-3.8358378578680035,14.096063166816212,-0.6000000238418579
-3.8705417309802677,13.769823491927665,-0.6000000238418579
-3.87890222031246,13.405253654912363,-0.6000000238418579
-3.87890222031246,13.405253654912363,-0.6000000238418579
-3.880659457825651,13.05929373168842,-0.6000000238418579
-3.8698343151000594,12.742472406069224,-0.6000000238418579
-3.8698343151000594,12.742472406069224,-0.6000000238418579
-3.850200229122782,12.40904778878418,-0.6000000238418579
-3.8289202465282854,12.071902166985657,-0.6000000238418579
-3.8289202465282854,12.071902166985657,-0.6000000238418579
-3.800937724604345,11.725446965902567,-0.6000000238418579
-3.800937724604345,11.725446965902567,-0.6000000238418579
-3.773285970891347,11.365666152052436,-0.6000000238418579
-3.6975598197113984,11.044340435715826,-0.6000000238418579
-3.6975598197113984,11.044340435715826,-0.6000000238418579
-3.7487966907873655,10.722347856557024,-0.6000000238418579
-3.494910992999188,10.393292297659626,-0.6000000238418579
-3.494910992999188,10.393292297659626,-0.6000000238418579
-3.7944737860604456,10.064470712465669,-0.6000000238418579
-3.4281461931560226,9.766443006141607,-0.6000000238418579
-3.4281461931560226,9.766443006141607,-0.6000000238418579
-3.729451666548385,9.463290372285089,-0.6000000238418579
-3.3736436799283296,9.18691956824658,-0.6000000238418579
-3.3736436799283296,9.18691956824658,-0.6000000238418579
-3.7154644371347025,8.870087060252168,-0.6000000238418579
-3.372721858545434,8.555819537935042,-0.6000000238418579
-3.6520738958526144,8.27472504624672,-0.6000000238418579
-3.6520738958526144,8.27472504624672,-0.6000000238418579
-3.2237990622504453,8.031333788169357,-0.6000000238418579
-3.692931346389611,7.702662361632483,-0.8999999761581421
-3.692931346389611,7.702662361632483,-0.8999999761581421
-3.514785722775355,7.367487452884252,-0.8999999761581421
-4.401591219774249,6.991433075618298,-0.8999999761581421
-4.401591219774249,6.991433075618298,-0.8999999761581421
-13.707017358524878,6.020480570933283,-0.8999999761581421
-27.377618285594668,3.0508580320260648,-0.8999999761581421
-27.377618285594668,3.0508580320260648,-0.8999999761581421
-26.43446632437214,0.7203825577732912,-0.8999999761581421
-26.43446632437214,0.7203825577732912,-0.8999999761581421
-7.325578752424279,0.000628442365807056,-0.8999999761581421
-0.017936351059228785,-0.0008188432741870847,-0.8999999761581421
-0.017936351059228785,-0.0008188432741870847,-0.8999999761581421
-0.0022750799324618765,-0.001044748785374483,-0.8999999761581421
-0.005106094921882177,-0.0015096393595443755,-0.8999999761581421
-0.005106094921882177,-0.0015096393595443755,-0.8999999761581421
-0.0035933490475892034,-0.0017992201715181313,-0.8999999761581421
0.0008597063652004359,-0.0017299308582290854,-0.8999999761581421
-0.00010386844389237608,-0.0017378044051218197,-0.8999999761581421
-0.00010386844389237608,-0.0017378044051218197,-0.8999999761581421
0.002356666377626305,-0.0015520609852269598,-0.5
0.0020395793761871558,-0.001386800824637926,-0.5
0.0020395793761871558,-0.001386800824637926,-0.5
0.003076902942736648,-0.0011095023834592232,-0.5
-0.0012293864116098222,-0.001211817619201397,-0.5
-0.001285899395718213,-0.0013073220475568873,-0.5
0.0015423669833280458,-0.0011921012171728312,-0.5
0.0015423669833280458,-0.0011921012171728312,-0.5
0.004601934020022285,-0.0007739554745361812,-0.5
-0.001183960634233333,-0.0008759353426038696,-0.5
-0.001183960634233333,-0.0008759353426038696,-0.5
0.0007242235667834597,-0.0008128359707033934,-0.5
-0.001982848267467364,-0.0009686501698304265,-0.5
0.013786810772066522,-0.0,-0.5
0.013786810772066522,-0.0,-0.5
-0.0,-0.0,0.8999999761581421
-0.0008343010762406044,-6.984863046388916e-05,0.800000011920929
-0.0008343010762406044,-6.984863046388916e-05,1.0
-1.5352142468329424,-0.11142916690688064,1.0
-1.5352142468329424,-0.11142916690688064,1.0
2.5888292182296015,0.09634729991296222,1.0
-3.505622884404065,-0.2333686017131653,1.0
-3.505622884404065,-0.2333686017131653,1.0
3.7408862519438673,0.07804778170256586,1.0
1.2197520267221007,0.18519032058929513,1.0
1.2197520267221007,0.18519032058929513,1.0
4.8013897633493166,0.6477931887657334,1.0
4.8013897633493166,0.6477931887657334,1.0
4.228787022817328,1.0536693438933447,1.0
4.6631556649829715,1.463613489866981,1.0
3.9084059207914574,1.784333001867562,1.0
3.9084059207914574,1.784333001867562,1.0
6.3588606390463465,2.251287726421212,1.0
5.7682147560022985,2.68486244921514,1.0
5.7682147560022985,2.68486244921514,1.0
5.525751258529787,3.218245619493142,1.0
5.691200032574509,3.7372363606473695,1.0
5.691200032574509,3.7372363606473695,0
6.1475390911686265,4.220952547674385,0
6.357113240780161,4.830217578170532,0
6.357113240780161,4.830217578170532,0
7.095973686163409,5.412268866970255,0
4.778961749290973,5.791723738904742,0
4.2555541735923175,6.127673052883687,0
4.2555541735923175,6.127673052883687,0
3.4968457158116846,6.376791130233099,0
2.655701691680789,6.574641358626125,0
1.8108829637420953,6.700310259524286,0
1.8108829637420953,6.700310259524286,0
1.0652292276403599,6.800002118335712,0
0.36275953205068157,6.836171697231761,0
0.36275953205068157,6.836171697231761,0
-0.01771261887393529,6.83476475660823,0
-0.35710923420500384,6.802134915027668,0
-0.35710923420500384,6.802134915027668,0
-0.5833399603089301,6.753932848945273,0
-0.7540466680596488,6.686696024852512,0
-0.7540466680596488,6.686696024852512,0.6000000238418579
-1.2409107412091762,6.582566444228255,0.6000000238418579
-1.5753698809088397,6.436994247414456,0.6000000238418579
-1.5753698809088397,6.436994247414456,0.6000000238418579
-0.7199987548439688,6.369645128785322,0.6000000238418579
-0.7199987548439688,6.369645128785322,0.6000000238418579
-0.4113620654081786,6.331330193751912,0.6000000238418579
0.8513907600562888,6.408304107394693,0.6000000238418579
0.8513907600562888,6.408304107394693,0.6000000238418579
0.8518967329786588,6.489829346777031,0.6000000238418579
2.1521397546452468,6.681716528736332,0.6000000238418579
2.1521397546452468,6.681716528736332,0.6000000238418579
1.7326808332974686,6.84786035293982,0.6000000238418579
1.7326808332974686,6.84786035293982,0.6000000238418579
2.184726474437623,7.076896463788543,0.6000000238418579
2.7737451086421427,7.330901445106069,0.6000000238418579
2.7737451086421427,7.330901445106069,0.6000000238418579
3.745126563381861,7.634879389775105,0.6000000238418579
3.4013518588869975,7.89764967886999,0.6000000238418579
3.4013518588869975,7.89764967886999,0.6000000238418579
2.8774670919810315,8.168654076570018,0.6000000238418579
3.3664484076695125,8.446940181094396,0.6000000238418579
3.3664484076695125,8.446940181094396,0.6000000238418579
2.950051036607043,8.730969198635428,0.6000000238418579
3.4371003477765343,9.018379313048662,0.6000000238418579
3.8081263059451818,9.323006709810324,0.6000000238418579
3.8081263059451818,9.323006709810324,0.6000000238418579
3.5798071191517273,9.591670088851037,0.6000000238418579
3.6472155911361193,9.858104975724528,0.6000000238418579
3.6472155911361193,9.858104975724528,0.6000000238418579
3.306512509686102,10.156482617116657,0.6000000238418579
3.394623174423365,10.44109091865079,0.6000000238418579
3.007028067139826,10.706434020590304,0.6000000238418579
3.007028067139826,10.706434020590304,0.6000000238418579
3.3210518164343648,10.965275378336035,0.6000000238418579
3.1392330989224444,11.193172043634874,0.6000000238418579
3.114662950129178,11.413308063630364,0.6000000238418579
3.0463678499332234,11.620927325642414,0.6000000238418579
3.0463678499332234,11.620927325642414,0.6000000238418579
3.049885558485951,11.87646650893599,0.6000000238418579
2.992682387349305,12.154859674383285,0.4000000059604645
2.992682387349305,12.154859674383285,0.4000000059604645
2.8471382030148784,12.397553699430269,0.4000000059604645
2.4886842961746654,12.576997710221567,0.4000000059604645
2.2007439099176067,12.75456930078416,0.4000000059604645
2.2007439099176067,12.75456930078416,0.4000000059604645
1.9422644826710567,12.935888019026859,0.4000000059604645
1.7443927673489823,13.07117476332146,0.4000000059604645
1.7443927673489823,13.07117476332146,0.4000000059604645
1.5988422763079886,13.23487989069326,0.4000000059604645
1.466349689783094,13.369710392951136,0.4000000059604645
1.466349689783094,13.369710392951136,0.4000000059604645
1.381479872127081,13.502280171626683,0.4000000059604645
1.381479872127081,13.502280171626683,0.4000000059604645
1.311359809361671,13.616162928835626,0.4000000059604645
1.2646478653248974,13.731323260617598,0.4000000059604645
1.2646478653248974,13.731323260617598,0.4000000059604645
1.2234118274312518,13.831819241510795,0.4000000059604645
1.196028728976714,13.937768704403375,0.4000000059604645
1.196028728976714,13.937768704403375,0.4000000059604645
1.1686879883734282,14.04771072308554,0.800000011920929
1.239493108521922,14.165635446004142,0.800000011920929
1.239493108521922,14.165635446004142,0.800000011920929
1.5836880427462998,14.302256858887317,0.800000011920929
2.159682219666407,14.505738830211747,0.800000011920929
2.159682219666407,14.505738830211747,0.800000011920929
2.7387816244399863,14.748956289480288,0.800000011920929
2.7387816244399863,14.748956289480288,0.800000011920929
3.185740951617181,15.06211669323635,0.800000011920929
3.5062517069211743,15.363573806719478,0.800000011920929
3.5062517069211743,15.363573806719478,0.800000011920929
3.737717121307672,15.69530972453878,0.800000011920929
3.907005131080862,16.02460621537146,0.800000011920929
4.032097943331516,16.36441284344242,0.800000011920929
4.120131384273117,16.675107072455564,0.800000011920929
4.186439104200804,17.00001018516454,0.800000011920929
4.186439104200804,17.00001018516454,0.800000011920929
4.233969565498366,17.31144211948013,0.800000011920929
4.273487228869531,17.696143890215062,0.800000011920929
4.273487228869531,17.696143890215062,0.800000011920929
4.300774941903397,18.07982197131391,0.4000000059604645
4.215611076095269,18.453445352283897,0.4000000059604645
4.215611076095269,18.453445352283897,0.4000000059604645
3.512410626275305,18.776661163214897,0.4000000059604645
3.1087562922520813,19.0064135708869,0.4000000059604645
3.1087562922520813,19.0064135708869,0.4000000059604645
-0.9260117743798619,18.91588770466442,0.4000000059604645
0.7752359786955063,18.98363187485909,0.4000000059604645
0.7752359786955063,18.98363187485909,0.4000000059604645
-0.7747377796767583,18.918810443948026,0.4000000059604645
-0.03356853043051391,18.915683508965838,0.4000000059604645
-0.03356853043051391,18.915683508965838,0.4000000059604645
-0.44376837764548455,18.878183529941737,0.4000000059604645
1.2756821378138303,18.979638470526854,0.4000000059604645
1.2756821378138303,18.979638470526854,0.4000000059604645
0.1700308709501212,18.992466402635895,0.4000000059604645
0.48243871081510975,19.033585197312316,0.4000000059604645
0.48243871081510975,19.033585197312316,0.4000000059604645
-1.0265842272633818,18.937537281505833,0.4000000059604645
1.2494859686443152,19.043496377307743,0.4000000059604645
1.2494859686443152,19.043496377307743,0.30000001192092896
0.054142784129768154,19.047745024601294,0.30000001192092896
0.054142784129768154,19.047745024601294,0.30000001192092896
0.21704830756341842,19.071617167777745,0.30000001192092896
0.18224953624450244,19.08807144540385,0.30000001192092896
0.18224953624450244,19.08807144540385,0.30000001192092896
-0.8795271984453904,19.010528049556076,0.30000001192092896
0.4320926004981723,19.048266704211493,0.30000001192092896
0.4320926004981723,19.048266704211493,0.30000001192092896
-1.0587359058457315,18.95461673012665,0.30000001192092896
1.7430919999966874,19.08303363963246,0.30000001192092896
-0.7570261861336725,19.023279792670674,0.30000001192092896
-1.7244355594058094,18.90260710700123,0.30000001192092896
-1.7244355594058094,18.90260710700123,0.30000001192092896
0.9873910780589714,18.988024374915888,0.30000001192092896
-1.216092968926934,18.88517734850083,0.30000001192092896
-1.216092968926934,18.88517734850083,0.30000001192092896
0.3058057791360916,18.91069039200787,0.30000001192092896
-0.49563182773964903,18.87286472936569,0.30000001192092896
-0.49563182773964903,18.87286472936569,0.30000001192092896
-0.31055663851285564,18.845143882506754,0
-1.4779803135950982,18.712187020676595,0
-1.4779803135950982,18.712187020676595,0
0.23112986841208943,18.73088961650682,0
-2.2063286768929418,18.53043558558239,0
-2.2063286768929418,18.53043558558239,0
-1.2481212201087595,18.4101963831367,0
-2.8392355985525133,18.144070339996034,0
-0.9299741626029612,18.064603050986744,0
-0.9299741626029612,18.064603050986744,0
-0.8647146899132027,17.996718257065265,0
-0.7107287209401432,17.929496261227783,0
-0.7107287209401432,17.929496261227783,0
-1.0643364673337707,17.840483354986066,0
-1.0643364673337707,17.840483354986066,0
-1.440675598837835,17.705035625171856,0
-1.705125574447508,17.571151000615192,0
-1.8759028959676771,17.42309495266371,0
-1.8759028959676771,17.42309495266371,0
-2.0191048851364664,17.22185380022272,0
-2.0191048851364664,17.22185380022272,0.5
-2.133347501219216,17.02084928294216,0.5
-2.1233176810980727,16.842323154832066,0.5
-1.8954552927227997,16.70086380133772,0.5
-1.8954552927227997,16.70086380133772,0.5
-1.40860392544947,16.564455928877127,0.5
-0.7786580683771684,16.504259626179458,0.5
-0.7786580683771684,16.504259626179458,0.5
-0.22413475877428526,16.488562523269845,0.5
0.22661555370686673,16.510088672788495,0.5
0.22661555370686673,16.510088672788495,0.5
0.6119937231126691,16.562289844530987,0.5
0.8882516437374657,16.63887134340824,0.5
1.0813689974150076,16.71314332415832,0.5
1.0813689974150076,16.71314332415832,0.5
1.2038749805990254,16.8012755079651,0.5
1.3342354690617175,16.92303027268317,0.5
1.3342354690617175,16.92303027268317,0.5
1.4264213793072025,17.04470097313812,0.5
1.4938050034391412,17.162733837341953,0.5
1.5436874251404864,17.290038998371877,-0.4000000059604645
1.5436874251404864,17.290038998371877,-0.4000000059604645
1.1912386170487608,17.392540006495413,-0.4000000059604645
1.1912386170487608,17.392540006495413,-0.4000000059604645
0.09931323211592659,17.402378305777418,-0.4000000059604645
-1.1729970971397305,17.30462762653651,-0.4000000059604645
-1.1729970971397305,17.30462762653651,-0.4000000059604645
-1.868373917044806,17.127580153583395,-0.4000000059604645
-2.342538330028528,16.923493056564674,-0.4000000059604645
-2.342538330028528,16.923493056564674,-0.4000000059604645
-2.6528461775065675,16.719704626859812,-0.4000000059604645
-2.8578659088560885,16.515071985758546,-0.4000000059604645
-3.031717291792231,16.278237245794877,-0.4000000059604645
-3.031717291792231,16.278237245794877,-0.4000000059604645
-3.1532700438420904,15.992644115615372,-0.4000000059604645
-3.251621884934083,15.73026293314558,-0.4000000059604645
-3.307474312864813,15.490675776707931,-0.4000000059604645
-3.307474312864813,15.490675776707931,-0.4000000059604645
-3.343564466492047,15.18081422624651,-0.4000000059604645
-3.3731426978217467,14.90484001903356,-0.4000000059604645
-3.3731426978217467,14.90484001903356,-0.8999999761581421
-3.6333029855533536,14.617746423272726,-0.8999999761581421
-4.061654338112438,14.297794053516613,-0.8999999761581421
-4.470146217681167,13.98385949742586,-0.8999999761581421
-4.470146217681167,13.98385949742586,-0.8999999761581421
-4.87334336725341,13.518197643442665,-0.8999999761581421
-4.87334336725341,13.518197643442665,-0.8999999761581421
-4.947393977031558,13.083155286438405,-0.8999999761581421
-4.904802434402882,12.63948409335616,-0.8999999761581421
-4.904802434402882,12.63948409335616,-0.8999999761581421
-4.859471564972449,12.146238741997207,-0.8999999761581421
-4.821464855567418,11.778990143785434,-0.8999999761581421
-4.771742655260525,11.329794283869424,-0.8999999761581421
-4.771742655260525,11.329794283869424,-0.8999999761581421
-4.705038761460354,10.889721946010978,-0.8999999761581421
-4.705038761460354,10.889721946010978,-0.8999999761581421
-4.6878436219213055,10.480432375618793,-0.8999999761581421
-4.403317656821805,10.123579100951137,-0.8999999761581421
-4.403317656821805,10.123579100951137,-0.8999999761581421
-4.683948535094163,9.642597467999774,-0.8999999761581421
-4.259854130503739,9.263345274805449,-0.6000000238418579
-4.259854130503739,9.263345274805449,-0.6000000238418579
-4.243568050294595,8.846947138725957,-0.6000000238418579
-4.243568050294595,8.846947138725957,-0.6000000238418579
-3.303922099669275,8.548569866467647,-0.6000000238418579
-3.692403310120068,8.229439351729047,-0.6000000238418579
-3.692403310120068,8.229439351729047,-0.6000000238418579
-3.3356005058066907,7.897099752877502,-0.6000000238418579
-3.7455554161394167,7.538372793545269,-0.6000000238418579
-3.7455554161394167,7.538372793545269,-0.6000000238418579
-3.1059743210485067,7.2816185155186695,-0.6000000238418579
-3.5915866846146356,6.977452783687922,-0.6000000238418579
-3.5915866846146356,6.977452783687922,-0.6000000238418579
-3.2064780443971634,6.667448685007857,-0.6000000238418579
-3.2064780443971634,6.667448685007857,-0.6000000238418579
-3.6092177350436474,6.355541007813095,-0.6000000238418579
-15.668688566028838,5.263151522512942,-0.6000000238418579
-27.430017131516834,3.1430979513673694,-0.6000000238418579
-27.430017131516834,3.1430979513673694,-0.6000000238418579
-26.35316517458715,0.625781112868679,-0.6000000238418579
-6.7764330361230725,0.0004971907607516394,-0.8999999761581421
-6.7764330361230725,0.0004971907607516394,-0.8999999761581421
-0.012537133983373352,-0.0006362282503807479,-0.8999999761581421
-0.007392159519506225,-0.0012658363808124272,-0.8999999761581421
-0.002941653194325169,-0.0015116853758485955,-0.8999999761581421
-0.002941653194325169,-0.0015116853758485955,-0.8999999761581421
-0.0005665231504322071,-0.0015592128819305474,-0.8999999761581421
0.0006063875252372309,-0.0015068468916009047,-0.8999999761581421
0.0006063875252372309,-0.0015068468916009047,-0.8999999761581421
-0.00048215145073411095,-0.0015463042292895004,-0.8999999761581421
0.002492208910455685,-0.0013295945362196452,-0.8999999761581421
0.002492208910455685,-0.0013295945362196452,-0.8999999761581421
0.0018021120745224436,-0.0011631753062645712,-0.8999999761581421
-0.0007624231971866032,-0.0012288655556343848,-0.8999999761581421
-0.00026548447689131324,-0.0012505364608367084,-0.8999999761581421
-0.00026548447689131324,-0.0012505364608367084,-0.8999999761581421
-0.00015331214464968103,-0.001262098568145417,-0.8999999761581421
0.004725912013413984,-0.0008296022510908746,-0.8999999761581421
0.004725912013413984,-0.0008296022510908746,-0.8999999761581421
-0.0016323266595851392,-0.0009680495028688756,-0.8999999761581421
0.006511878307014893,-0.0005247374123852032,-0.30000001192092896
-0.004740718019802873,-0.0009325725578554942,-0.30000001192092896
-0.004740718019802873,-0.0009325725578554942,-0.30000001192092896
0.0010971388512745822,-0.0008373243251099374,-0.30000001192092896
0.0010971388512745822,-0.0008373243251099374,-0.30000001192092896
0.008872557965767558,-0.0,-0.30000001192092896
-0.0,-0.0,-0.30000001192092896
-0.0,-0.0,1.0
-0.0,-0.0,0
-0.0,-0.0,0.4000000059604645
1.12050381266487,0.07769188092049162,0.30000001192092896
1.12050381266487,0.07769188092049162,0.6000000238418579
-3.8111479047151064,-0.29978978001666656,0.6000000238418579
2.9783828742411274,-0.06828828646742387,0.6000000238418579
2.9783828742411274,-0.06828828646742387,0.6000000238418579
-3.386766434322592,-0.3557599160107738,0.6000000238418579
2.8677029799526648,-0.0628637166009479,0.6000000238418579
2.8677029799526648,-0.0628637166009479,0.6000000238418579
-1.3721444958979288,-0.18924011190823353,0.6000000238418579
-1.3721444958979288,-0.18924011190823353,0.6000000238418579
2.115908331605798,0.015330924985732063,0.6000000238418579
4.768244416966967,0.4185270322234361,0.6000000238418579
4.768244416966967,0.4185270322234361,0.6000000238418579
3.47103015620942,0.7517214810222537,0.6000000238418579
0.8266364830525014,0.8270270945130149,0.6000000238418579
3.225421096322889,1.1191118947789953,0.6000000238418579
3.225421096322889,1.1191118947789953,0.6000000238418579
3.328084851007121,1.4191305712226312,0.6000000238418579
3.328084851007121,1.4191305712226312,0.6000000238418579
3.4889761776354224,1.7204170689391134,0.6000000238418579
3.088232947267449,1.9567967325976194,0.6000000238418579
2.874799558473487,2.187381047350781,0.699999988079071
3.9396796420233815,2.532031619844876,0.699999988079071
3.9396796420233815,2.532031619844876,0.699999988079071
3.1553004279425862,2.785318652496582,0.699999988079071
2.3179390174926544,3.0341649620456024,0.699999988079071
2.3179390174926544,3.0341649620456024,0.699999988079071
5.316927950717008,3.4429493578251424,0.699999988079071
3.492661048761683,3.7584296433781708,0.699999988079071
3.722133205850352,4.068341077336977,0.699999988079071
3.722133205850352,4.068341077336977,0.699999988079071
4.297481594203024,4.469991906086029,0.699999988079071
4.297481594203024,4.469991906086029,0.699999988079071
4.112899131190425,4.842874045582729,0.699999988079071
5.041153282663565,5.240716042349758,0.699999988079071
5.041153282663565,5.240716042349758,0.699999988079071
4.386724006618574,5.653458542695186,0.699999988079071
3.882652415199934,5.990976291378213,0.699999988079071
4.216330464580932,6.347236401781635,0.699999988079071
4.216330464580932,6.347236401781635,0.699999988079071
4.574901302616773,6.702791945263789,0.699999988079071
4.574901302616773,6.702791945263789,0.6000000238418579
3.585715029438924,7.040832086016479,0.6000000238418579
4.024683632205144,7.401353712780487,0.6000000238418579
3.8659335417369687,7.747372692260344,0.6000000238418579
3.8659335417369687,7.747372692260344,0.6000000238418579
3.7126319820404583,8.082603217996827,0.6000000238418579
3.7126319820404583,8.082603217996827,0.6000000238418579
3.3298974284368397,8.403822781346046,0.6000000238418579
3.90899281282025,8.741998794041853,0.6000000238418579
4.174878975482466,9.066985400838385,0.6000000238418579
4.174878975482466,9.066985400838385,0.6000000238418579
3.9536520941014364,9.371686456211089,0.6000000238418579
3.7044043577535404,9.672445796090729,0.6000000238418579
3.7044043577535404,9.672445796090729,0.6000000238418579
3.2908081182502675,9.969347395919124,0.6000000238418579
2.85967449627935,10.247399869241685,0.6000000238418579
2.85967449627935,10.247399869241685,0.6000000238418579
3.723224224251092,10.523661397042934,0.6000000238418579
3.324422896149634,10.753471481098556,0.6000000238418579
3.356828968160247,11.011109752100992,0.6000000238418579
3.258221667281904,11.289460013267876,0.10000000149011612
3.258221667281904,11.289460013267876,0.10000000149011612
2.976500839401636,11.572933817991332,0.10000000149011612
2.976500839401636,11.572933817991332,0.10000000149011612
2.1671217106887974,11.779025127367927,0.10000000149011612
1.1626261086444838,11.891632896165886,0.10000000149011612
1.1626261086444838,11.891632896165886,0.10000000149011612
0.8044539205060472,11.953852847030236,0.10000000149011612
0.01897488480013104,11.955846067364089,0.10000000149011612
0.01897488480013104,11.955846067364089,0.10000000149011612
-0.13011068988507543,11.944224410712263,0.10000000149011612
-0.4029414267180268,11.908154431283396,0.10000000149011612
-0.8119939414436189,11.85018940041244,0.10000000149011612
-0.8119939414436189,11.85018940041244,0.10000000149011612
-0.5817987296627033,11.801115683475162,0.10000000149011612
-0.7699832903536491,11.732576984515507,0.10000000149011612
-0.7699832903536491,11.732576984515507,0.10000000149011612
-0.9014993202924689,11.64861600202392,0.10000000149011612
-0.8715794962806291,11.550718996162784,0.10000000149011612
-0.8715794962806291,11.550718996162784,0.10000000149011612
-1.0533832016361147,11.449027296124953,0.800000011920929
-1.0533832016361147,11.449027296124953,0.800000011920929
-0.8521095046639795,11.377973863525915,0.800000011920929
-0.6772282700700789,11.315615697217192,0.800000011920929
-0.6772282700700789,11.315615697217192,0.800000011920929
-0.03863235914646934,11.31242896518944,0.800000011920929
0.5936846953605874,11.36083690762915,0.800000011920929
1.3545501480876962,11.468751922213144,0.800000011920929
1.3545501480876962,11.468751922213144,0.800000011920929
2.2182954901788197,11.716751866189705,0.800000011920929
2.894925564780124,11.969683952306855,0.800000011920929
3.28912154557838,12.20892625352267,0.800000011920929
3.28912154557838,12.20892625352267,0.800000011920929
3.5684814429366294,12.480175196872409,0.800000011920929
3.7851027778746307,12.763583094958587,0.800000011920929
3.955615805354611,13.07213754414664,0.800000011920929
3.955615805354611,13.07213754414664,0.800000011920929
4.098768890613369,13.446598062053978,0.800000011920929
4.1982376207440195,13.761641427682788,0.800000011920929
4.27598450882802,14.058530321387527,0.800000011920929
4.3180105053731275,14.351499636360082,0.800000011920929
4.3180105053731275,14.351499636360082,0.800000011920929
4.364206954700324,14.710953014007934,0.800000011920929
4.402258680757444,15.096340624507016,0.800000011920929
4.402258680757444,15.096340624507016,0.800000011920929
4.424258464078475,15.492497044622564,0.800000011920929
4.437311865559936,15.878220464586674,0.800000011920929
4.437311865559936,15.878220464586674,0.800000011920929
4.4454750905806195,16.29170597599203,0.800000011920929
4.446002503543155,16.661971630863597,0.800000011920929
4.446289904928136,16.997226899387616,0.800000011920929
4.446289904928136,16.997226899387616,0.800000011920929
4.443678598079857,17.40789457261515,0.800000011920929
4.434378706037356,17.771075068843498,0.800000011920929
4.434378706037356,17.771075068843498,0.800000011920929
4.439229469674368,18.10859476717058,0.800000011920929
4.3966750940754995,18.557363980631713,0.800000011920929
4.3966750940754995,18.557363980631713,0.800000011920929
4.452223900797559,18.881155259031303,0.800000011920929
4.376300519140931,19.27360889029157,0.800000011920929
4.376300519140931,19.27360889029157,0
4.014810833178048,19.68620138553019,0
0.9939497740985961,19.770503778854405,0
0.9939497740985961,19.770503778854405,0
1.6418238427466532,19.88996511217946,0
-0.9492892716875099,19.7995642359116,0
0.4244918272931874,19.831173461994652,0
0.4244918272931874,19.831173461994652,0
-1.9150282658521718,19.694935960604642,0
